"Source.Name","Opening_text","stim_ending_t","visbility","soundvolume","modalityBlock.thisRepN","modalityBlock.thisTrialN","modalityBlock.thisN","modalityBlock.thisIndex","TrialsStudy.thisRepN","TrialsStudy.thisTrialN","TrialsStudy.thisN","TrialsStudy.thisIndex","text.started","text.stopped","keyWelcome.keys","keyWelcome.rt","keyWelcome.started","keyWelcome.stopped","imageInstr.started","imageInstr.stopped","key_resp.keys","key_resp.rt","key_resp.started","key_resp.stopped","FixationCross.started","FixationCross.stopped","modalityInstr.started","modalityInstr.stopped","modalityFocusKey.keys","modalityFocusKey.rt","modalityFocusKey.started","modalityFocusKey.stopped","StudyVisualStim.started","StudyVisualStim.stopped","StudyAuditoryStim.started","StudyAuditoryStim.stopped","text_2.started","text_2.stopped","key_resp_3.keys","key_resp_3.rt","key_resp_3.started","key_resp_3.stopped","ReproductionVisual.started","ReproductionVisual.stopped","key_resp_2.keys","key_resp_2.rt","key_resp_2.started","key_resp_2.stopped","ReproductionSound.started","ReproductionSound.stopped","participant","session","date","expName","psychopyVersion","frameRate"
"001_visual_demo1.csv","Now focus on the Image",1.5,0,0,0,0,0,0,0,0,0,14,NA,NA,NA,NA,NA,NA,NA,NA,NA,NA,NA,NA,104.7667035,"None",92.97061079,"None","space",3.286710303,92.97061079,"None",96.34030139,"None",96.34030139,"None",98.78391915,"None","space",1.440407254,98.78391915,"None",100.2729094,"None","space",4.486417401,100.2729094,"None",100.2729094,"None",1,1,"2019_Jun_17_1042","visual_demo1",2002-03-01,99.6825894
"001_visual_demo1.csv","Now focus on the Image",2.5,0,1,0,0,0,0,0,1,1,4,NA,NA,NA,NA,NA,NA,NA,NA,NA,NA,NA,NA,117.2488223,"None",NA,NA,NA,NA,NA,NA,105.8340102,"None",105.8340102,"None",109.2765017,"None","space",5.060858801,109.2765017,"None",114.3534839,"None","space",2.876886178,114.3534839,"None",114.3534839,"None",1,1,"2019_Jun_17_1042","visual_demo1",2002-03-01,99.6825894
"001_visual_demo1.csv","Now focus on the Image",2,0,0,0,0,0,0,0,2,2,15,NA,NA,NA,NA,NA,NA,NA,NA,NA,NA,NA,NA,128.6604418,"None",NA,NA,NA,NA,NA,NA,118.3156321,"None",118.3156321,"None",121.2564654,"None","space",3.907871021,121.2564654,"None",125.1767613,"None","space",3.468660893,125.1767613,"None",125.1767613,"None",1,1,"2019_Jun_17_1042","visual_demo1",2002-03-01,99.6825894
"001_visual_demo1.csv","Now focus on the Image",2.5,1,0,0,0,0,0,0,3,3,10,NA,NA,NA,NA,NA,NA,NA,NA,NA,NA,NA,NA,142.266246,"None",NA,NA,NA,NA,NA,NA,129.7205449,"None",129.7205449,"None",133.1690566,"None","space",2.109328603,133.1690566,"None",135.2970452,"None","space",6.952323366,135.2970452,"None",135.2970452,"None",1,1,"2019_Jun_17_1042","visual_demo1",2002-03-01,99.6825894
"001_visual_demo1.csv","Now focus on the Image",1,1,0,0,0,0,0,0,4,4,7,NA,NA,NA,NA,NA,NA,NA,NA,NA,NA,NA,NA,150.2513807,"None",NA,NA,NA,NA,NA,NA,143.333125,"None",143.333125,"None",145.2719521,"None","space",1.252475844,145.2719521,"None",146.5398431,"None","space",3.693515324,146.5398431,"None",146.5398431,"None",1,1,"2019_Jun_17_1042","visual_demo1",2002-03-01,99.6825894
"001_visual_demo1.csv","Now focus on the Image",3.5,1,0,0,0,0,0,0,5,5,6,NA,NA,NA,NA,NA,NA,NA,NA,NA,NA,NA,NA,164.0377197,"None",NA,NA,NA,NA,NA,NA,151.3197444,"None",151.3197444,"None",155.7646667,"None","space",2.227780239,155.7646667,"None",158.0081163,"None","space",6.021261643,158.0081163,"None",158.0081163,"None",1,1,"2019_Jun_17_1042","visual_demo1",2002-03-01,99.6825894
"001_visual_demo1.csv","Now focus on the Image",1.5,1,0,0,0,0,0,0,7,7,8,NA,NA,NA,NA,NA,NA,NA,NA,NA,NA,NA,NA,190.5301468,"None",NA,NA,NA,NA,NA,NA,182.0874251,"None",182.0874251,"None",184.5291651,"None","space",2.224429313,184.5291651,"None",186.7730758,"None","space",3.742337146,186.7730758,"None",186.7730758,"None",1,1,"2019_Jun_17_1042","visual_demo1",2002-03-01,99.6825894
"001_visual_demo1.csv","Now focus on the Image",1,0,0,0,0,0,0,0,8,8,13,NA,NA,NA,NA,NA,NA,NA,NA,NA,NA,NA,NA,199.5046955,"None",NA,NA,NA,NA,NA,NA,191.5861706,"None",191.5861706,"None",193.5333711,"None","space",2.039041235,193.5333711,"None",195.5925746,"None","space",3.897880119,195.5925746,"None",195.5925746,"None",1,1,"2019_Jun_17_1042","visual_demo1",2002-03-01,99.6825894
"001_visual_demo1.csv","Now focus on the Image",2,0,1,0,0,0,0,0,9,9,3,NA,NA,NA,NA,NA,NA,NA,NA,NA,NA,NA,NA,209.1057212,"None",NA,NA,NA,NA,NA,NA,200.5713992,"None",200.5713992,"None",203.515049,"None","space",0.714385513,203.515049,"None",204.2464934,"None","space",4.845903259,204.2464934,"None",204.2464934,"None",1,1,"2019_Jun_17_1042","visual_demo1",2002-03-01,99.6825894
"001_visual_demo1.csv","Now focus on the Image",3.5,0,0,0,0,0,0,0,12,12,12,NA,NA,NA,NA,NA,NA,NA,NA,NA,NA,NA,NA,254.1481865,"None",NA,NA,NA,NA,NA,NA,240.2785661,"None",240.2785661,"None",244.7303896,"None","space",4.803091431,244.7303896,"None",249.5518412,"None","space",4.586602773,249.5518412,"None",249.5518412,"None",1,1,"2019_Jun_17_1042","visual_demo1",2002-03-01,99.6825894
"001_visual_demo1.csv","Now focus on the Image",3,1,0,0,0,0,0,0,13,13,11,NA,NA,NA,NA,NA,NA,NA,NA,NA,NA,NA,NA,262.5147538,"None",NA,NA,NA,NA,NA,NA,255.203663,"None",255.203663,"None",259.1577106,"None","space",1.443738302,259.1577106,"None",260.6157669,"None","space",1.890731349,260.6157669,"None",260.6157669,"None",1,1,"2019_Jun_17_1042","visual_demo1",2002-03-01,99.6825894
"001_visual_demo1.csv","Now focus on the Image",1.5,0,1,0,0,0,0,0,14,14,2,NA,NA,NA,NA,NA,NA,NA,NA,NA,NA,NA,NA,272.8637335,"None",NA,NA,NA,NA,NA,NA,263.5796444,"None",263.5796444,"None",266.0207073,"None","space",1.03381415,266.0207073,"None",267.0671051,"None","space",5.78738581,267.0671051,"None",267.0671051,"None",1,1,"2019_Jun_17_1042","visual_demo1",2002-03-01,99.6825894
"001_visual_demo1.csv","Now focus on the Image",1,0,1,0,0,0,0,0,15,15,1,NA,NA,NA,NA,NA,NA,NA,NA,NA,NA,NA,NA,279.4461595,"None",NA,NA,NA,NA,NA,NA,273.9334095,"None",273.9334095,"None",275.8693973,"None","space",0.057068972,275.8693973,"None",275.9419384,"None","space",3.489545188,275.9419384,"None",275.9419384,"None",1,1,"2019_Jun_17_1042","visual_demo1",2002-03-01,99.6825894
"001_visual_demo1.csv","Now focus on the Image",3.5,0,1,0,0,0,0,0,16,16,0,NA,NA,NA,NA,NA,NA,NA,NA,NA,NA,NA,NA,287.9650359,"None",NA,NA,NA,NA,NA,NA,280.5041649,"None",280.5041649,"None",284.9465666,"None","space",0.728887597,284.9465666,"None",285.6931216,"None","space",2.255364142,285.6931216,"None",285.6931216,"None",1,1,"2019_Jun_17_1042","visual_demo1",2002-03-01,99.6825894
"001_visual_demo1.csv","Now focus on the Image",3,0,1,0,0,0,0,0,17,17,5,NA,NA,NA,NA,NA,NA,NA,NA,NA,NA,NA,NA,296.5184747,"None",NA,NA,NA,NA,NA,NA,289.0178456,"None",289.0178456,"None",292.962683,"None","space",0.782828782,292.962683,"None",293.764986,"None","space",2.742692693,293.764986,"None",293.764986,"None",1,1,"2019_Jun_17_1042","visual_demo1",2002-03-01,99.6825894
"001_visual_demo1.csv","Now focus on the Image",1,1,0,0,0,0,0,1,0,18,7,NA,NA,NA,NA,NA,NA,NA,NA,NA,NA,NA,NA,310.0340851,"None",NA,NA,NA,NA,NA,NA,297.5835436,"None",297.5835436,"None",299.5265727,"None","space",3.491929501,299.5265727,"None",303.0359189,"None","space",6.983654458,303.0359189,"None",303.0359189,"None",1,1,"2019_Jun_17_1042","visual_demo1",2002-03-01,99.6825894
"001_visual_demo1.csv","Now focus on the Image",2.5,0,0,0,0,0,0,1,1,19,16,NA,NA,NA,NA,NA,NA,NA,NA,NA,NA,NA,NA,323.1897531,"None",NA,NA,NA,NA,NA,NA,311.1019028,"None",311.1019028,"None",314.5426772,"None","space",4.35487561,314.5426772,"None",318.9137502,"None","space",4.264776037,318.9137502,"None",318.9137502,"None",1,1,"2019_Jun_17_1042","visual_demo1",2002-03-01,99.6825894
"001_visual_demo1.csv","Now focus on the Image",1,0,0,0,0,0,0,1,2,20,13,NA,NA,NA,NA,NA,NA,NA,NA,NA,NA,NA,NA,333.7518193,"None",NA,NA,NA,NA,NA,NA,324.2587551,"None",324.2587551,"None",326.1947512,"None","space",0.968749058,326.1947512,"None",327.1784737,"None","space",6.557353025,327.1784737,"None",327.1784737,"None",1,1,"2019_Jun_17_1042","visual_demo1",2002-03-01,99.6825894
"001_visual_demo1.csv","Now focus on the Image",1,0,1,0,0,0,0,1,3,21,1,NA,NA,NA,NA,NA,NA,NA,NA,NA,NA,NA,NA,343.0591224,"None",NA,NA,NA,NA,NA,NA,334.8186422,"None",334.8186422,"None",336.7548082,"None","space",3.606753853,336.7548082,"None",340.3759186,"None","space",2.668650441,340.3759186,"None",340.3759186,"None",1,1,"2019_Jun_17_1042","visual_demo1",2002-03-01,99.6825894
"001_visual_demo1.csv","Now focus on the Image",2,0,0,0,0,0,0,1,4,22,15,NA,NA,NA,NA,NA,NA,NA,NA,NA,NA,NA,NA,354.899067,"None",NA,NA,NA,NA,NA,NA,344.1255773,"None",344.1255773,"None",347.0642363,"None","space",3.586315514,347.0642363,"None",350.6633749,"None","space",4.222291864,350.6633749,"None",350.6633749,"None",1,1,"2019_Jun_17_1042","visual_demo1",2002-03-01,99.6825894
"001_visual_demo1.csv","Now focus on the Image",2.5,0,1,0,0,0,0,1,5,23,4,NA,NA,NA,NA,NA,NA,NA,NA,NA,NA,NA,NA,364.6375213,"None",NA,NA,NA,NA,NA,NA,355.9672073,"None",355.9672073,"None",359.4103707,"None","space",2.063196947,359.4103707,"None",361.4940682,"None","space",3.132488207,361.4940682,"None",361.4940682,"None",1,1,"2019_Jun_17_1042","visual_demo1",2002-03-01,99.6825894
"001_visual_demo1.csv","Now focus on the Image",2,0,1,0,0,0,0,1,6,24,3,NA,NA,NA,NA,NA,NA,NA,NA,NA,NA,NA,NA,372.3649085,"None",NA,NA,NA,NA,NA,NA,365.6942415,"None",365.6942415,"None",368.6351444,"None","space",0.031406433,368.6351444,"None",368.6798734,"None","space",3.665673657,368.6798734,"None",368.6798734,"None",1,1,"2019_Jun_17_1042","visual_demo1",2002-03-01,99.6825894
"001_visual_demo1.csv","Now focus on the Image",3.5,0,0,0,0,0,0,1,7,25,12,NA,NA,NA,NA,NA,NA,NA,NA,NA,NA,NA,NA,386.1005711,"None",NA,NA,NA,NA,NA,NA,373.419068,"None",373.419068,"None",377.8726328,"None","space",3.529921087,377.8726328,"None",381.414789,"None","space",4.669783447,381.414789,"None",381.414789,"None",1,1,"2019_Jun_17_1042","visual_demo1",2002-03-01,99.6825894
"001_visual_demo1.csv","Now focus on the Image",3,1,0,0,0,0,0,1,8,26,11,NA,NA,NA,NA,NA,NA,NA,NA,NA,NA,NA,NA,398.1919136,"None",NA,NA,NA,NA,NA,NA,387.1640229,"None",387.1640229,"None",391.1076624,"None","space",0.640897581,391.1076624,"None",391.7611244,"None","space",6.419623627,391.7611244,"None",391.7611244,"None",1,1,"2019_Jun_17_1042","visual_demo1",2002-03-01,99.6825894
"001_visual_demo1.csv","Now focus on the Image",3,0,0,0,0,0,0,1,9,27,17,NA,NA,NA,NA,NA,NA,NA,NA,NA,NA,NA,NA,407.1180403,"None",NA,NA,NA,NA,NA,NA,399.2586942,"None",399.2586942,"None",403.1905363,"None","space",0.821058254,403.1905363,"None",404.0249966,"None","space",3.082665147,404.0249966,"None",404.0249966,"None",1,1,"2019_Jun_17_1042","visual_demo1",2002-03-01,99.6825894
"001_visual_demo1.csv","Now focus on the Image",3.5,1,0,0,0,0,0,1,10,28,6,NA,NA,NA,NA,NA,NA,NA,NA,NA,NA,NA,NA,421.4077889,"None",NA,NA,NA,NA,NA,NA,408.1760355,"None",408.1760355,"None",412.618442,"None","space",2.881200511,412.618442,"None",415.516284,"None","space",5.877325402,415.516284,"None",415.516284,"None",1,1,"2019_Jun_17_1042","visual_demo1",2002-03-01,99.6825894
"001_visual_demo1.csv","Now focus on the Image",1.5,0,0,0,0,0,0,1,11,29,14,NA,NA,NA,NA,NA,NA,NA,NA,NA,NA,NA,NA,428.6315569,"None",NA,NA,NA,NA,NA,NA,422.4701078,"None",422.4701078,"None",424.9117436,"None","space",2.003861964,424.9117436,"None",426.9282337,"None","space",1.685349286,426.9282337,"None",426.9282337,"None",1,1,"2019_Jun_17_1042","visual_demo1",2002-03-01,99.6825894
"001_visual_demo1.csv","Now focus on the Image",3.5,0,1,0,0,0,0,1,12,30,0,NA,NA,NA,NA,NA,NA,NA,NA,NA,NA,NA,NA,438.5703374,"None",NA,NA,NA,NA,NA,NA,429.6947801,"None",429.6947801,"None",434.129354,"None","space",0.737266835,434.129354,"None",434.8828952,"None","space",3.667714606,434.8828952,"None",434.8828952,"None",1,1,"2019_Jun_17_1042","visual_demo1",2002-03-01,99.6825894
"001_visual_demo1.csv","Now focus on the Image",3,0,1,0,0,0,0,1,13,31,5,NA,NA,NA,NA,NA,NA,NA,NA,NA,NA,NA,NA,448.1156505,"None",NA,NA,NA,NA,NA,NA,439.6349543,"None",439.6349543,"None",443.5770415,"None","space",0.716579709,443.5770415,"None",444.3108102,"None","space",3.792811347,444.3108102,"None",444.3108102,"None",1,1,"2019_Jun_17_1042","visual_demo1",2002-03-01,99.6825894
"001_visual_demo1.csv","Now focus on the Image",2,1,0,0,0,0,0,1,14,32,9,NA,NA,NA,NA,NA,NA,NA,NA,NA,NA,NA,NA,454.7983465,"None",NA,NA,NA,NA,NA,NA,449.1831169,"None",449.1831169,"None",452.1233296,"None","space",0.619298986,452.1233296,"None",452.7570133,"None","space",2.031621557,452.7570133,"None",452.7570133,"None",1,1,"2019_Jun_17_1042","visual_demo1",2002-03-01,99.6825894
"001_visual_demo1.csv","Now focus on the Image",1.5,0,1,0,0,0,0,1,15,33,2,NA,NA,NA,NA,NA,NA,NA,NA,NA,NA,NA,NA,460.2887468,"None",NA,NA,NA,NA,NA,NA,455.865762,"None",455.865762,"None",458.3077241,"None","space",0.881952963,458.3077241,"None",459.2092203,"None","space",1.071420373,459.2092203,"None",459.2092203,"None",1,1,"2019_Jun_17_1042","visual_demo1",2002-03-01,99.6825894
"001_visual_demo1.csv","Now focus on the Image",1.5,1,0,0,0,0,0,1,16,34,8,NA,NA,NA,NA,NA,NA,NA,NA,NA,NA,NA,NA,465.9895128,"None",NA,NA,NA,NA,NA,NA,461.3558086,"None",461.3558086,"None",463.7953871,"None","space",0.547286462,463.7953871,"None",464.3584853,"None","space",1.617132362,464.3584853,"None",464.3584853,"None",1,1,"2019_Jun_17_1042","visual_demo1",2002-03-01,99.6825894
"001_visual_demo1.csv","Now focus on the Image",2.5,1,0,0,0,0,0,1,17,35,10,NA,NA,NA,NA,NA,NA,NA,NA,NA,NA,NA,NA,473.8444936,"None",NA,NA,NA,NA,NA,NA,467.0460922,"None",467.0460922,"None",470.5008778,"None","space",0.573755954,470.5008778,"None",471.0920245,"None","space",2.736620182,471.0920245,"None",471.0920245,"None",1,1,"2019_Jun_17_1042","visual_demo1",2002-03-01,99.6825894
"001_visual_demo1.csv","Now focus on the Image",1.5,0,1,0,0,0,0,2,0,36,2,NA,NA,NA,NA,NA,NA,NA,NA,NA,NA,NA,NA,480.7298558,"None",NA,NA,NA,NA,NA,NA,474.8998406,"None",474.8998406,"None",477.3510656,"None","space",0.430632117,477.3510656,"None",477.7966829,"None","space",2.91996635,477.7966829,"None",477.7966829,"None",1,1,"2019_Jun_17_1042","visual_demo1",2002-03-01,99.6825894
"001_visual_demo1.csv","Now focus on the Image",3,0,0,0,0,0,0,2,1,37,17,NA,NA,NA,NA,NA,NA,NA,NA,NA,NA,NA,NA,493.4816241,"None",NA,NA,NA,NA,NA,NA,481.7925449,"None",481.7925449,"None",485.7396627,"None","space",4.721997872,485.7396627,"None",490.4781202,"None","space",2.991533558,490.4781202,"None",490.4781202,"None",1,1,"2019_Jun_17_1042","visual_demo1",2002-03-01,99.6825894
"001_visual_demo1.csv","Now focus on the Image",1.5,1,0,0,0,0,0,2,2,38,8,NA,NA,NA,NA,NA,NA,NA,NA,NA,NA,NA,NA,501.075945,"None",NA,NA,NA,NA,NA,NA,494.5480046,"None",494.5480046,"None",496.9882714,"None","space",1.010408324,496.9882714,"None",498.0157601,"None","space",3.045934486,498.0157601,"None",498.0157601,"None",1,1,"2019_Jun_17_1042","visual_demo1",2002-03-01,99.6825894
"001_visual_demo1.csv","Now focus on the Image",2.5,0,0,0,0,0,0,2,3,39,16,NA,NA,NA,NA,NA,NA,NA,NA,NA,NA,NA,NA,509.1111913,"None",NA,NA,NA,NA,NA,NA,502.1355663,"None",502.1355663,"None",505.5872966,"None","space",0.835394907,505.5872966,"None",506.4387773,"None","space",2.654896,506.4387773,"None",506.4387773,"None",1,1,"2019_Jun_17_1042","visual_demo1",2002-03-01,99.6825894
"001_visual_demo1.csv","Now focus on the Image",1,1,0,0,0,0,0,2,4,40,7,NA,NA,NA,NA,NA,NA,NA,NA,NA,NA,NA,NA,514.1708132,"None",NA,NA,NA,NA,NA,NA,510.1765023,"None",510.1765023,"None",512.1169301,"None","space",0.131751785,512.1169301,"None",512.2592008,"None","space",1.893520261,512.2592008,"None",512.2592008,"None",1,1,"2019_Jun_17_1042","visual_demo1",2002-03-01,99.6825894
"001_visual_demo1.csv","Now focus on the Image",3,0,1,0,0,0,0,2,5,41,5,NA,NA,NA,NA,NA,NA,NA,NA,NA,NA,NA,NA,521.8152666,"None",NA,NA,NA,NA,NA,NA,515.2386159,"None",515.2386159,"None",519.1702342,"None","space",0.429463525,519.1702342,"None",519.6138385,"None","space",2.183844703,519.6138385,"None",519.6138385,"None",1,1,"2019_Jun_17_1042","visual_demo1",2002-03-01,99.6825894
"001_visual_demo1.csv","Now focus on the Image",3.5,0,1,0,0,0,0,2,6,42,0,NA,NA,NA,NA,NA,NA,NA,NA,NA,NA,NA,NA,533.2468993,"None",NA,NA,NA,NA,NA,NA,522.8824364,"None",522.8824364,"None",527.3156766,"None","space",2.715987237,527.3156766,"None",530.043101,"None","space",3.193683319,530.043101,"None",530.043101,"None",1,1,"2019_Jun_17_1042","visual_demo1",2002-03-01,99.6825894
"001_visual_demo1.csv","Now focus on the Image",3,1,0,0,0,0,0,2,7,43,11,NA,NA,NA,NA,NA,NA,NA,NA,NA,NA,NA,NA,542.5345445,"None",NA,NA,NA,NA,NA,NA,534.3039888,"None",534.3039888,"None",538.2566469,"None","space",0.261034299,538.2566469,"None",538.5289657,"None","space",3.99173169,538.5289657,"None",538.5289657,"None",1,1,"2019_Jun_17_1042","visual_demo1",2002-03-01,99.6825894
"001_visual_demo1.csv","Now focus on the Image",1,0,1,0,0,0,0,2,8,44,1,NA,NA,NA,NA,NA,NA,NA,NA,NA,NA,NA,NA,547.7444002,"None",NA,NA,NA,NA,NA,NA,543.6000934,"None",543.6000934,"None",545.5402015,"None","space",0.817592873,545.5402015,"None",546.3736789,"None","space",1.360021262,546.3736789,"None",546.3736789,"None",1,1,"2019_Jun_17_1042","visual_demo1",2002-03-01,99.6825894
"001_visual_demo1.csv","Now focus on the Image",1,0,0,0,0,0,0,2,9,45,13,NA,NA,NA,NA,NA,NA,NA,NA,NA,NA,NA,NA,554.2968403,"None",NA,NA,NA,NA,NA,NA,548.802221,"None",548.802221,"None",550.7400381,"None","space",0.723709884,550.7400381,"None",551.4761187,"None","space",2.811612054,551.4761187,"None",551.4761187,"None",1,1,"2019_Jun_17_1042","visual_demo1",2002-03-01,99.6825894
"001_visual_demo1.csv","Now focus on the Image",2.5,0,1,0,0,0,0,2,10,46,4,NA,NA,NA,NA,NA,NA,NA,NA,NA,NA,NA,NA,566.8405431,"None",NA,NA,NA,NA,NA,NA,555.3619042,"None",555.3619042,"None",558.805319,"None","space",2.497635244,558.805319,"None",561.3253399,"None","space",5.50536847,561.3253399,"None",561.3253399,"None",1,1,"2019_Jun_17_1042","visual_demo1",2002-03-01,99.6825894
"001_visual_demo1.csv","Now focus on the Image",3.5,0,0,0,0,0,0,2,11,47,12,NA,NA,NA,NA,NA,NA,NA,NA,NA,NA,NA,NA,577.9442869,"None",NA,NA,NA,NA,NA,NA,567.9080499,"None",567.9080499,"None",572.3438245,"None","space",0.601931367,572.3438245,"None",572.9642417,"None","space",4.96347228,572.9642417,"None",572.9642417,"None",1,1,"2019_Jun_17_1042","visual_demo1",2002-03-01,99.6825894
"001_visual_demo1.csv","Now focus on the Image",2,0,1,0,0,0,0,2,12,48,3,NA,NA,NA,NA,NA,NA,NA,NA,NA,NA,NA,NA,584.9949313,"None",NA,NA,NA,NA,NA,NA,579.0092433,"None",579.0092433,"None",581.9519643,"None","space",0.492772362,581.9519643,"None",582.4649509,"None","space",2.520771444,582.4649509,"None",582.4649509,"None",1,1,"2019_Jun_17_1042","visual_demo1",2002-03-01,99.6825894
"001_visual_demo1.csv","Now focus on the Image",1.5,0,0,0,0,0,0,2,13,49,14,NA,NA,NA,NA,NA,NA,NA,NA,NA,NA,NA,NA,593.5009762,"None",NA,NA,NA,NA,NA,NA,586.061736,"None",586.061736,"None",588.5015155,"None","space",0.592228045,588.5015155,"None",589.1073675,"None","space",4.378378257,589.1073675,"None",589.1073675,"None",1,1,"2019_Jun_17_1042","visual_demo1",2002-03-01,99.6825894
"001_visual_demo1.csv","Now focus on the Image",2.5,1,0,0,0,0,0,2,14,50,10,NA,NA,NA,NA,NA,NA,NA,NA,NA,NA,NA,NA,602.8214709,"None",NA,NA,NA,NA,NA,NA,594.5609845,"None",594.5609845,"None",598.009553,"None","space",0.43620449,598.009553,"None",598.4650888,"None","space",4.340664953,598.4650888,"None",598.4650888,"None",1,1,"2019_Jun_17_1042","visual_demo1",2002-03-01,99.6825894
"001_visual_demo1.csv","Now focus on the Image",3.5,1,0,0,0,0,0,2,16,52,6,NA,NA,NA,NA,NA,NA,NA,NA,NA,NA,NA,NA,630.7115203,"None",NA,NA,NA,NA,NA,NA,619.9787682,"None",619.9787682,"None",624.4094878,"None","space",1.217288238,624.4094878,"None",625.6449865,"None","space",5.058776495,625.6449865,"None",625.6449865,"None",1,1,"2019_Jun_17_1042","visual_demo1",2002-03-01,99.6825894
"001_visual_demo1.csv","Now focus on the Image",2,1,0,0,0,0,0,2,17,53,9,NA,NA,NA,NA,NA,NA,NA,NA,NA,NA,NA,NA,638.8471078,"None",NA,NA,NA,NA,NA,NA,631.7706648,"None",631.7706648,"None",634.7218683,"None","space",0.429918458,634.7218683,"None",635.1649898,"None","space",3.675799211,635.1649898,"None",635.1649898,"None",1,1,"2019_Jun_17_1042","visual_demo1",2002-03-01,99.6825894
"001_visual_demo1.csv","Now focus on the Image",1.5,0,0,0,0,0,0,3,0,54,14,NA,NA,NA,NA,NA,NA,NA,NA,NA,NA,NA,NA,644.2571794,"None",NA,NA,NA,NA,NA,NA,639.9122052,"None",639.9122052,"None",642.3563247,"None","space",-0.000507512,642.3563247,"None",642.3688189,"None","space",1.877961475,642.3688189,"None",642.3688189,"None",1,1,"2019_Jun_17_1042","visual_demo1",2002-03-01,99.6825894
"001_visual_demo1.csv","Now focus on the Image",3.5,0,0,0,0,0,0,3,1,55,12,NA,NA,NA,NA,NA,NA,NA,NA,NA,NA,NA,NA,655.1277587,"None",NA,NA,NA,NA,NA,NA,645.3246657,"None",645.3246657,"None",649.7675983,"None","space",1.719171451,649.7675983,"None",651.5061094,"None","space",3.60678944,651.5061094,"None",651.5061094,"None",1,1,"2019_Jun_17_1042","visual_demo1",2002-03-01,99.6825894
"001_visual_demo1.csv","Now focus on the Image",3,0,1,0,0,0,0,3,2,56,5,NA,NA,NA,NA,NA,NA,NA,NA,NA,NA,NA,NA,664.0045606,"None",NA,NA,NA,NA,NA,NA,656.1982641,"None",656.1982641,"None",660.1371398,"None","space",0.026724371,660.1371398,"None",660.1796942,"None","space",3.81211636,660.1796942,"None",660.1796942,"None",1,1,"2019_Jun_17_1042","visual_demo1",2002-03-01,99.6825894
"001_visual_demo1.csv","Now focus on the Image",1,0,0,0,0,0,0,3,3,57,13,NA,NA,NA,NA,NA,NA,NA,NA,NA,NA,NA,NA,669.4649448,"None",NA,NA,NA,NA,NA,NA,665.0709026,"None",665.0709026,"None",667.0029425,"None","space",0.622869844,667.0029425,"None",667.6440812,"None","space",1.811711761,667.6440812,"None",667.6440812,"None",1,1,"2019_Jun_17_1042","visual_demo1",2002-03-01,99.6825894
"001_visual_demo1.csv","Now focus on the Image",2,1,0,0,0,0,0,3,4,58,9,NA,NA,NA,NA,NA,NA,NA,NA,NA,NA,NA,NA,680.4657857,"None",NA,NA,NA,NA,NA,NA,670.5308806,"None",670.5308806,"None",673.4725395,"None","space",3.485272534,673.4725395,"None",676.9711728,"None","space",3.478666221,676.9711728,"None",676.9711728,"None",1,1,"2019_Jun_17_1042","visual_demo1",2002-03-01,99.6825894
"001_visual_demo1.csv","Now focus on the Image",1.5,1,0,0,0,0,0,3,5,59,8,NA,NA,NA,NA,NA,NA,NA,NA,NA,NA,NA,NA,688.5610909,"None",NA,NA,NA,NA,NA,NA,681.5345935,"None",681.5345935,"None",683.9632623,"None","space",2.056579735,683.9632623,"None",686.0380483,"None","space",2.50777266,686.0380483,"None",686.0380483,"None",1,1,"2019_Jun_17_1042","visual_demo1",2002-03-01,99.6825894
"001_visual_demo1.csv","Now focus on the Image",2.5,0,0,0,0,0,0,3,6,60,16,NA,NA,NA,NA,NA,NA,NA,NA,NA,NA,NA,NA,697.1374159,"None",NA,NA,NA,NA,NA,NA,689.6277866,"None",689.6277866,"None",693.0596415,"None","space",0.696243962,693.0596415,"None",693.7755899,"None","space",3.355237889,693.7755899,"None",693.7755899,"None",1,1,"2019_Jun_17_1042","visual_demo1",2002-03-01,99.6825894
"001_visual_demo1.csv","Now focus on the Image",1.5,0,1,0,0,0,0,3,7,61,2,NA,NA,NA,NA,NA,NA,NA,NA,NA,NA,NA,NA,707.7976909,"None",NA,NA,NA,NA,NA,NA,698.1944621,"None",698.1944621,"None",700.6463927,"None","space",2.610445899,700.6463927,"None",703.2711201,"None","space",4.51671231,703.2711201,"None",703.2711201,"None",1,1,"2019_Jun_17_1042","visual_demo1",2002-03-01,99.6825894
"001_visual_demo1.csv","Now focus on the Image",3,1,0,0,0,0,0,3,8,62,11,NA,NA,NA,NA,NA,NA,NA,NA,NA,NA,NA,NA,715.9731778,"None",NA,NA,NA,NA,NA,NA,708.8531495,"None",708.8531495,"None",712.807031,"None","space",0.056795179,712.807031,"None",712.8796934,"None","space",3.080165738,712.8796934,"None",712.8796934,"None",1,1,"2019_Jun_17_1042","visual_demo1",2002-03-01,99.6825894
"001_visual_demo1.csv","Now focus on the Image",2,0,0,0,0,0,0,3,9,63,15,NA,NA,NA,NA,NA,NA,NA,NA,NA,NA,NA,NA,723.1164758,"None",NA,NA,NA,NA,NA,NA,717.0411245,"None",717.0411245,"None",719.9834829,"None","space",0.603398118,719.9834829,"None",720.606506,"None","space",2.503328804,720.606506,"None",720.606506,"None",1,1,"2019_Jun_17_1042","visual_demo1",2002-03-01,99.6825894
"001_visual_demo1.csv","Now focus on the Image",2.5,1,0,0,0,0,0,3,10,64,10,NA,NA,NA,NA,NA,NA,NA,NA,NA,NA,NA,NA,731.5648436,"None",NA,NA,NA,NA,NA,NA,724.1758739,"None",724.1758739,"None",727.6278533,"None","space",0.552029439,727.6278533,"None",728.1987277,"None","space",3.348115729,728.1987277,"None",728.1987277,"None",1,1,"2019_Jun_17_1042","visual_demo1",2002-03-01,99.6825894
"001_visual_demo1.csv","Now focus on the Image",1,0,1,0,0,0,0,3,11,65,1,NA,NA,NA,NA,NA,NA,NA,NA,NA,NA,NA,NA,735.6502963,"None",NA,NA,NA,NA,NA,NA,732.6280225,"None",732.6280225,"None",734.5710103,"None","space",0.524878668,734.5710103,"None",735.1142841,"None","space",0.528622331,735.1142841,"None",735.1142841,"None",1,1,"2019_Jun_17_1042","visual_demo1",2002-03-01,99.6825894
"001_visual_demo1.csv","Now focus on the Image",2.5,0,1,0,0,0,0,3,12,66,4,NA,NA,NA,NA,NA,NA,NA,NA,NA,NA,NA,NA,749.2861127,"None",NA,NA,NA,NA,NA,NA,736.7173549,"None",736.7173549,"None",740.1487632,"None","space",2.54311159,740.1487632,"None",742.7085756,"None","space",6.568281686,742.7085756,"None",742.7085756,"None",1,1,"2019_Jun_17_1042","visual_demo1",2002-03-01,99.6825894
"001_visual_demo1.csv","Now focus on the Image",1,1,0,0,0,0,0,3,13,67,7,NA,NA,NA,NA,NA,NA,NA,NA,NA,NA,NA,NA,755.9314788,"None",NA,NA,NA,NA,NA,NA,750.3539734,"None",750.3539734,"None",752.2945477,"None","space",1.333326387,752.2945477,"None",753.6394449,"None","space",2.27443191,753.6394449,"None",753.6394449,"None",1,1,"2019_Jun_17_1042","visual_demo1",2002-03-01,99.6825894
"001_visual_demo1.csv","Now focus on the Image",3.5,0,1,0,0,0,0,3,14,68,0,NA,NA,NA,NA,NA,NA,NA,NA,NA,NA,NA,NA,766.5188033,"None",NA,NA,NA,NA,NA,NA,756.9885055,"None",756.9885055,"None",761.4391338,"None","space",0.710821067,761.4391338,"None",762.1629219,"None","space",4.340028239,762.1629219,"None",762.1629219,"None",1,1,"2019_Jun_17_1042","visual_demo1",2002-03-01,99.6825894
"001_visual_demo1.csv","Now focus on the Image",3.5,1,0,0,0,0,0,3,15,69,6,NA,NA,NA,NA,NA,NA,NA,NA,NA,NA,NA,NA,776.1670692,"None",NA,NA,NA,NA,NA,NA,767.5843352,"None",767.5843352,"None",772.019348,"None","space",0.560563848,772.019348,"None",772.5955735,"None","space",3.562307278,772.5955735,"None",772.5955735,"None",1,1,"2019_Jun_17_1042","visual_demo1",2002-03-01,99.6825894
"001_visual_demo1.csv","Now focus on the Image",3,0,0,0,0,0,0,3,16,70,17,NA,NA,NA,NA,NA,NA,NA,NA,NA,NA,NA,NA,786.7097801,"None",NA,NA,NA,NA,NA,NA,777.2233752,"None",777.2233752,"None",781.1793056,"None","space",2.432577206,781.1793056,"None",783.6238182,"None","space",3.074074632,783.6238182,"None",783.6238182,"None",1,1,"2019_Jun_17_1042","visual_demo1",2002-03-01,99.6825894
"001_visual_demo1.csv","Now focus on the Image",2,0,1,0,0,0,0,3,17,71,3,NA,NA,NA,NA,NA,NA,NA,NA,NA,NA,NA,NA,795.4135312,"None",NA,NA,NA,NA,NA,NA,787.7731171,"None",787.7731171,"None",790.7145782,"None","space",2.563339294,790.7145782,"None",793.2949655,"None","space",2.108927531,793.2949655,"None",793.2949655,"None",1,1,"2019_Jun_17_1042","visual_demo1",2002-03-01,99.6825894
"001_visual_demo1.csv","Now focus on the Image",1,0,0,0,0,0,0,4,0,72,13,NA,NA,NA,NA,NA,NA,NA,NA,NA,NA,NA,NA,800.9840886,"None",NA,NA,NA,NA,NA,NA,796.4832037,"None",796.4832037,"None",798.4192068,"None","space",1.475684308,798.4192068,"None",799.9069118,"None","space",1.066019201,799.9069118,"None",799.9069118,"None",1,1,"2019_Jun_17_1042","visual_demo1",2002-03-01,99.6825894
"001_visual_demo1.csv","Now focus on the Image",1.5,0,1,0,0,0,0,4,1,73,2,NA,NA,NA,NA,NA,NA,NA,NA,NA,NA,NA,NA,806.5948054,"None",NA,NA,NA,NA,NA,NA,802.0414595,"None",802.0414595,"None",804.4931167,"None","space",0.189796668,804.4931167,"None",804.7060072,"None","space",1.878914944,804.7060072,"None",804.7060072,"None",1,1,"2019_Jun_17_1042","visual_demo1",2002-03-01,99.6825894
"001_visual_demo1.csv","Now focus on the Image",3,1,0,0,0,0,0,4,2,74,11,NA,NA,NA,NA,NA,NA,NA,NA,NA,NA,NA,NA,816.2056866,"None",NA,NA,NA,NA,NA,NA,807.6603898,"None",807.6603898,"None",811.5941491,"None","space",1.94174865,811.5941491,"None",813.5529999,"None","space",2.636932383,813.5529999,"None",813.5529999,"None",1,1,"2019_Jun_17_1042","visual_demo1",2002-03-01,99.6825894
"001_visual_demo1.csv","Now focus on the Image",2.5,0,0,0,0,0,0,4,3,75,16,NA,NA,NA,NA,NA,NA,NA,NA,NA,NA,NA,NA,823.6069238,"None",NA,NA,NA,NA,NA,NA,817.2707924,"None",817.2707924,"None",820.7141447,"None","space",0.002987043,820.7141447,"None",820.7343539,"None","space",2.859596465,820.7343539,"None",820.7343539,"None",1,1,"2019_Jun_17_1042","visual_demo1",2002-03-01,99.6825894
"001_visual_demo1.csv","Now focus on the Image",3.5,1,0,0,0,0,0,4,4,76,6,NA,NA,NA,NA,NA,NA,NA,NA,NA,NA,NA,NA,832.7943515,"None",NA,NA,NA,NA,NA,NA,824.6751865,"None",824.6751865,"None",829.11736,"None","space",0.812607522,829.11736,"None",829.9442525,"None","space",2.838671774,829.9442525,"None",829.9442525,"None",1,1,"2019_Jun_17_1042","visual_demo1",2002-03-01,99.6825894
"001_visual_demo1.csv","Now focus on the Image",2.5,1,0,0,0,0,0,4,5,77,10,NA,NA,NA,NA,NA,NA,NA,NA,NA,NA,NA,NA,840.3113264,"None",NA,NA,NA,NA,NA,NA,833.8526179,"None",833.8526179,"None",837.2928126,"None","space",0.485143011,837.2928126,"None",837.7961078,"None","space",2.497854535,837.7961078,"None",837.7961078,"None",1,1,"2019_Jun_17_1042","visual_demo1",2002-03-01,99.6825894
"001_visual_demo1.csv","Now focus on the Image",1.5,1,0,0,0,0,0,4,6,78,8,NA,NA,NA,NA,NA,NA,NA,NA,NA,NA,NA,NA,846.4710077,"None",NA,NA,NA,NA,NA,NA,841.3639711,"None",841.3639711,"None",843.8152195,"None","space",0.795761201,843.8152195,"None",844.6312789,"None","space",1.828774809,844.6312789,"None",844.6312789,"None",1,1,"2019_Jun_17_1042","visual_demo1",2002-03-01,99.6825894
"001_visual_demo1.csv","Now focus on the Image",3,0,1,0,0,0,0,4,7,79,5,NA,NA,NA,NA,NA,NA,NA,NA,NA,NA,NA,NA,854.3551696,"None",NA,NA,NA,NA,NA,NA,847.5292225,"None",847.5292225,"None",851.4824987,"None","space",0.41751984,851.4824987,"None",851.9147425,"None","space",2.430274967,851.9147425,"None",851.9147425,"None",1,1,"2019_Jun_17_1042","visual_demo1",2002-03-01,99.6825894
"001_visual_demo1.csv","Now focus on the Image",2.5,0,1,0,0,0,0,4,8,80,4,NA,NA,NA,NA,NA,NA,NA,NA,NA,NA,NA,NA,861.5187536,"None",NA,NA,NA,NA,NA,NA,855.4205107,"None",855.4205107,"None",858.8538567,"None","space",0.702140784,858.8538567,"None",859.5698119,"None","space",1.939147611,859.5698119,"None",859.5698119,"None",1,1,"2019_Jun_17_1042","visual_demo1",2002-03-01,99.6825894
"001_visual_demo1.csv","Now focus on the Image",2,0,1,0,0,0,0,4,9,81,3,NA,NA,NA,NA,NA,NA,NA,NA,NA,NA,NA,NA,871.9312146,"None",NA,NA,NA,NA,NA,NA,862.5779087,"None",862.5779087,"None",865.5263153,"None","space",2.377660431,865.5263153,"None",867.9159165,"None","space",4.001102228,867.9159165,"None",867.9159165,"None",1,1,"2019_Jun_17_1042","visual_demo1",2002-03-01,99.6825894
"001_visual_demo1.csv","Now focus on the Image",1,1,0,0,0,0,0,4,10,82,7,NA,NA,NA,NA,NA,NA,NA,NA,NA,NA,NA,NA,879.8463101,"None",NA,NA,NA,NA,NA,NA,872.9846926,"None",872.9846926,"None",874.9341972,"None","space",2.028782311,874.9341972,"None",876.9835714,"None","space",2.849426989,876.9835714,"None",876.9835714,"None",1,1,"2019_Jun_17_1042","visual_demo1",2002-03-01,99.6825894
"001_visual_demo1.csv","Now focus on the Image",1.5,0,0,0,0,0,0,4,11,83,14,NA,NA,NA,NA,NA,NA,NA,NA,NA,NA,NA,NA,886.1982442,"None",NA,NA,NA,NA,NA,NA,880.8988865,"None",880.8988865,"None",883.3500894,"None","space",0.84889415,883.3500894,"None",884.2172882,"None","space",1.962726561,884.2172882,"None",884.2172882,"None",1,1,"2019_Jun_17_1042","visual_demo1",2002-03-01,99.6825894
"001_visual_demo1.csv","Now focus on the Image",3,0,0,0,0,0,0,4,12,84,17,NA,NA,NA,NA,NA,NA,NA,NA,NA,NA,NA,NA,895.6834619,"None",NA,NA,NA,NA,NA,NA,887.2509565,"None",887.2509565,"None",891.2049624,"None","space",0.852013281,891.2049624,"None",892.0715903,"None","space",3.598444506,892.0715903,"None",892.0715903,"None",1,1,"2019_Jun_17_1042","visual_demo1",2002-03-01,99.6825894
"001_visual_demo1.csv","Now focus on the Image",2,1,0,0,0,0,0,4,13,85,9,NA,NA,NA,NA,NA,NA,NA,NA,NA,NA,NA,NA,902.7668555,"None",NA,NA,NA,NA,NA,NA,896.7488691,"None",896.7488691,"None",899.6934618,"None","space",0.679518508,899.6934618,"None",900.3870951,"None","space",2.363910798,900.3870951,"None",900.3870951,"None",1,1,"2019_Jun_17_1042","visual_demo1",2002-03-01,99.6825894
"001_visual_demo1.csv","Now focus on the Image",1,0,1,0,0,0,0,4,14,86,1,NA,NA,NA,NA,NA,NA,NA,NA,NA,NA,NA,NA,908.1598307,"None",NA,NA,NA,NA,NA,NA,903.8329564,"None",903.8329564,"None",905.7726045,"None","space",1.228389061,905.7726045,"None",907.0198045,"None","space",1.121219068,907.0198045,"None",907.0198045,"None",1,1,"2019_Jun_17_1042","visual_demo1",2002-03-01,99.6825894
"001_visual_demo1.csv","Now focus on the Image",3.5,0,0,0,0,0,0,4,15,87,12,NA,NA,NA,NA,NA,NA,NA,NA,NA,NA,NA,NA,918.1460724,"None",NA,NA,NA,NA,NA,NA,909.2147385,"None",909.2147385,"None",913.660326,"None","space",0.305699523,913.660326,"None",913.9802603,"None","space",4.155808432,913.9802603,"None",913.9802603,"None",1,1,"2019_Jun_17_1042","visual_demo1",2002-03-01,99.6825894
"001_visual_demo1.csv","Now focus on the Image",2,0,0,0,0,0,0,4,16,88,15,NA,NA,NA,NA,NA,NA,NA,NA,NA,NA,NA,NA,925.1694196,"None",NA,NA,NA,NA,NA,NA,919.2039586,"None",919.2039586,"None",922.1534914,"None","space",0.620498035,922.1534914,"None",922.7899699,"None","space",2.366138978,922.7899699,"None",922.7899699,"None",1,1,"2019_Jun_17_1042","visual_demo1",2002-03-01,99.6825894
"001_visual_demo1.csv","Now focus on the Image",3.5,0,1,0,0,0,0,4,17,89,0,NA,NA,NA,NA,NA,NA,NA,NA,NA,NA,NA,NA,935.4516629,"None",NA,NA,NA,NA,NA,NA,926.2349357,"None",926.2349357,"None",930.6724871,"None","space",1.484587088,930.6724871,"None",932.1752818,"None","space",3.256761964,932.1752818,"None",932.1752818,"None",1,1,"2019_Jun_17_1042","visual_demo1",2002-03-01,99.6825894
"001_visual_demo1.csv","Now focus on the Image",2,0,1,0,0,0,0,5,0,90,3,NA,NA,NA,NA,NA,NA,NA,NA,NA,NA,NA,NA,942.1738573,"None",NA,NA,NA,NA,NA,NA,936.5173772,"None",936.5173772,"None",939.4462569,"None","space",0.149771187,939.4462569,"None",939.6116802,"None","space",2.547348979,939.6116802,"None",939.6116802,"None",1,1,"2019_Jun_17_1042","visual_demo1",2002-03-01,99.6825894
"001_visual_demo1.csv","Now focus on the Image",1.5,1,0,0,0,0,0,5,1,91,8,NA,NA,NA,NA,NA,NA,NA,NA,NA,NA,NA,NA,948.6466306,"None",NA,NA,NA,NA,NA,NA,943.2377205,"None",943.2377205,"None",945.6781851,"None","space",1.310853832,945.6781851,"None",947.0035183,"None","space",1.627503176,947.0035183,"None",947.0035183,"None",1,1,"2019_Jun_17_1042","visual_demo1",2002-03-01,99.6825894
"001_visual_demo1.csv","Now focus on the Image",3,1,0,0,0,0,0,5,2,92,11,NA,NA,NA,NA,NA,NA,NA,NA,NA,NA,NA,NA,957.2729116,"None",NA,NA,NA,NA,NA,NA,949.7126745,"None",949.7126745,"None",953.6532378,"None","space",0.427809222,953.6532378,"None",954.0990976,"None","space",3.16199668,954.0990976,"None",954.0990976,"None",1,1,"2019_Jun_17_1042","visual_demo1",2002-03-01,99.6825894
"001_visual_demo1.csv","Now focus on the Image",1,0,1,0,0,0,0,5,3,93,1,NA,NA,NA,NA,NA,NA,NA,NA,NA,NA,NA,NA,962.0115,"None",NA,NA,NA,NA,NA,NA,958.3294465,"None",958.3294465,"None",960.2758336,"None","space",0.449404611,960.2758336,"None",960.7393087,"None","space",1.253769471,960.7393087,"None",960.7393087,"None",1,1,"2019_Jun_17_1042","visual_demo1",2002-03-01,99.6825894
"001_visual_demo1.csv","Now focus on the Image",2.5,1,0,0,0,0,0,5,4,94,10,NA,NA,NA,NA,NA,NA,NA,NA,NA,NA,NA,NA,969.4559288,"None",NA,NA,NA,NA,NA,NA,963.0767529,"None",963.0767529,"None",966.5176523,"None","space",1.058455253,966.5176523,"None",967.5947425,"None","space",1.844329427,967.5947425,"None",967.5947425,"None",1,1,"2019_Jun_17_1042","visual_demo1",2002-03-01,99.6825894
"001_visual_demo1.csv","Now focus on the Image",3.5,0,0,0,0,0,0,5,5,95,12,NA,NA,NA,NA,NA,NA,NA,NA,NA,NA,NA,NA,979.0541275,"None",NA,NA,NA,NA,NA,NA,970.5100329,"None",970.5100329,"None",974.9564832,"None","space",0.620602872,974.9564832,"None",975.589242,"None","space",3.443873596,975.589242,"None",975.589242,"None",1,1,"2019_Jun_17_1042","visual_demo1",2002-03-01,99.6825894
"001_visual_demo1.csv","Now focus on the Image",3.5,1,0,0,0,0,0,5,6,96,6,NA,NA,NA,NA,NA,NA,NA,NA,NA,NA,NA,NA,988.0984762,"None",NA,NA,NA,NA,NA,NA,980.1188264,"None",980.1188264,"None",984.5618129,"None","space",0.653241056,984.5618129,"None",985.2355699,"None","space",2.847511716,985.2355699,"None",985.2355699,"None",1,1,"2019_Jun_17_1042","visual_demo1",2002-03-01,99.6825894
"001_visual_demo1.csv","Now focus on the Image",2.5,0,0,0,0,0,0,5,7,97,16,NA,NA,NA,NA,NA,NA,NA,NA,NA,NA,NA,NA,996.7449215,"None",NA,NA,NA,NA,NA,NA,989.1675527,"None",989.1675527,"None",992.598282,"None","space",0.977809574,992.598282,"None",993.5914535,"None","space",3.140676366,993.5914535,"None",993.5914535,"None",1,1,"2019_Jun_17_1042","visual_demo1",2002-03-01,99.6825894
"001_visual_demo1.csv","Now focus on the Image",2,1,0,0,0,0,0,5,8,98,9,NA,NA,NA,NA,NA,NA,NA,NA,NA,NA,NA,NA,1004.148949,"None",NA,NA,NA,NA,NA,NA,997.8112408,"None",997.8112408,"None",1000.742459,"None","space",0.775703415,1000.742459,"None",1001.538954,"None","space",2.594141715,1001.538954,"None",1001.538954,"None",1,1,"2019_Jun_17_1042","visual_demo1",2002-03-01,99.6825894
"001_visual_demo1.csv","Now focus on the Image",3.5,0,1,0,0,0,0,5,9,99,0,NA,NA,NA,NA,NA,NA,NA,NA,NA,NA,NA,NA,1013.476799,"None",NA,NA,NA,NA,NA,NA,1005.206845,"None",1005.206845,"None",1009.659366,"None","space",0.4387366,1009.659366,"None",1010.112216,"None","space",3.354860221,1010.112216,"None",1010.112216,"None",1,1,"2019_Jun_17_1042","visual_demo1",2002-03-01,99.6825894
"001_visual_demo1.csv","Now focus on the Image",1,0,0,0,0,0,0,5,10,100,13,NA,NA,NA,NA,NA,NA,NA,NA,NA,NA,NA,NA,1018.746567,"None",NA,NA,NA,NA,NA,NA,1014.533433,"None",1014.533433,"None",1016.485081,"None","space",0.130026629,1016.485081,"None",1016.637437,"None","space",2.099664074,1016.637437,"None",1016.637437,"None",1,1,"2019_Jun_17_1042","visual_demo1",2002-03-01,99.6825894
"001_visual_demo1.csv","Now focus on the Image",1,1,0,0,0,0,0,5,11,101,7,NA,NA,NA,NA,NA,NA,NA,NA,NA,NA,NA,NA,1022.654099,"None",NA,NA,NA,NA,NA,NA,1019.81241,"None",1019.81241,"None",1021.755227,"None","space",0.192903937,1021.755227,"None",1021.964812,"None","space",0.678305032,1021.964812,"None",1021.964812,"None",1,1,"2019_Jun_17_1042","visual_demo1",2002-03-01,99.6825894
"001_visual_demo1.csv","Now focus on the Image",3,0,1,0,0,0,0,5,12,102,5,NA,NA,NA,NA,NA,NA,NA,NA,NA,NA,NA,NA,1030.739485,"None",NA,NA,NA,NA,NA,NA,1023.72271,"None",1023.72271,"None",1027.663467,"None","space",0.805620335,1027.663467,"None",1028.487269,"None","space",2.241880289,1028.487269,"None",1028.487269,"None",1,1,"2019_Jun_17_1042","visual_demo1",2002-03-01,99.6825894
"001_visual_demo1.csv","Now focus on the Image",2,0,0,0,0,0,0,5,13,103,15,NA,NA,NA,NA,NA,NA,NA,NA,NA,NA,NA,NA,1037.625187,"None",NA,NA,NA,NA,NA,NA,1031.806618,"None",1031.806618,"None",1034.746851,"None","space",0.003260516,1034.746851,"None",1034.769085,"None","space",2.837191557,1034.769085,"None",1034.769085,"None",1,1,"2019_Jun_17_1042","visual_demo1",2002-03-01,99.6825894
"001_visual_demo1.csv","Now focus on the Image",3,0,0,0,0,0,0,5,14,104,17,NA,NA,NA,NA,NA,NA,NA,NA,NA,NA,NA,NA,1050.138888,"None",NA,NA,NA,NA,NA,NA,1038.689447,"None",1038.689447,"None",1042.63183,"None","space",3.857326928,1042.63183,"None",1046.504537,"None","space",3.614603458,1046.504537,"None",1046.504537,"None",1,1,"2019_Jun_17_1042","visual_demo1",2002-03-01,99.6825894
"001_visual_demo1.csv","Now focus on the Image",1.5,0,0,0,0,0,0,5,15,105,14,NA,NA,NA,NA,NA,NA,NA,NA,NA,NA,NA,NA,1056.70848,"None",NA,NA,NA,NA,NA,NA,1051.203584,"None",1051.203584,"None",1053.645156,"None","space",0.957980378,1053.645156,"None",1054.617349,"None","space",2.083783725,1054.617349,"None",1054.617349,"None",1,1,"2019_Jun_17_1042","visual_demo1",2002-03-01,99.6825894
"001_visual_demo1.csv","Now focus on the Image",1.5,0,1,0,0,0,0,5,16,106,2,NA,NA,NA,NA,NA,NA,NA,NA,NA,NA,NA,NA,1063.213215,"None",NA,NA,NA,NA,NA,NA,1057.775055,"None",1057.775055,"None",1060.217917,"None","space",1.133266627,1060.217917,"None",1061.363006,"None","space",1.836234883,1061.363006,"None",1061.363006,"None",1,1,"2019_Jun_17_1042","visual_demo1",2002-03-01,99.6825894
"001_visual_demo1.csv","Now focus on the Image",2.5,0,1,0,0,0,0,5,17,107,4,NA,NA,NA,NA,NA,NA,NA,NA,NA,NA,NA,NA,1071.058543,"None",NA,NA,NA,NA,NA,NA,1064.278354,"None",1064.278354,"None",1067.719341,"None","space",0.697796635,1067.719341,"None",1068.436071,"None","space",2.604089656,1068.436071,"None",1068.436071,"None",1,1,"2019_Jun_17_1042","visual_demo1",2002-03-01,99.6825894
"001_visual_demo1.csv","Now focus on the Image",2.5,1,0,0,0,0,0,6,0,108,10,NA,NA,NA,NA,NA,NA,NA,NA,NA,NA,NA,NA,1078.599955,"None",NA,NA,NA,NA,NA,NA,1072.124442,"None",1072.124442,"None",1075.566966,"None","space",0.466173988,1075.566966,"None",1076.047914,"None","space",2.540236437,1076.047914,"None",1076.047914,"None",1,1,"2019_Jun_17_1042","visual_demo1",2002-03-01,99.6825894
"001_visual_demo1.csv","Now focus on the Image",1.5,0,1,0,0,0,0,6,1,109,2,NA,NA,NA,NA,NA,NA,NA,NA,NA,NA,NA,NA,1084.002715,"None",NA,NA,NA,NA,NA,NA,1079.657175,"None",1079.657175,"None",1082.108912,"None","space",0.454240563,1082.108912,"None",1082.58032,"None","space",1.405822698,1082.58032,"None",1082.58032,"None",1,1,"2019_Jun_17_1042","visual_demo1",2002-03-01,99.6825894
"001_visual_demo1.csv","Now focus on the Image",1.5,1,0,0,0,0,0,6,2,110,8,NA,NA,NA,NA,NA,NA,NA,NA,NA,NA,NA,NA,1090.304886,"None",NA,NA,NA,NA,NA,NA,1085.065722,"None",1085.065722,"None",1087.509673,"None","space",1.225509099,1087.509673,"None",1088.752124,"None","space",1.539025526,1088.752124,"None",1088.752124,"None",1,1,"2019_Jun_17_1042","visual_demo1",2002-03-01,99.6825894
"001_visual_demo1.csv","Now focus on the Image",3,0,1,0,0,0,0,6,3,111,5,NA,NA,NA,NA,NA,NA,NA,NA,NA,NA,NA,NA,1098.99138,"None",NA,NA,NA,NA,NA,NA,1091.358404,"None",1091.358404,"None",1095.301557,"None","space",0.379645915,1095.301557,"None",1095.696962,"None","space",3.279211757,1095.696962,"None",1095.696962,"None",1,1,"2019_Jun_17_1042","visual_demo1",2002-03-01,99.6825894
"001_visual_demo1.csv","Now focus on the Image",1,1,0,0,0,0,0,6,4,112,7,NA,NA,NA,NA,NA,NA,NA,NA,NA,NA,NA,NA,1103.737573,"None",NA,NA,NA,NA,NA,NA,1100.057601,"None",1100.057601,"None",1101.994243,"None","space",0.60596325,1101.994243,"None",1102.618229,"None","space",1.102923628,1102.618229,"None",1102.618229,"None",1,1,"2019_Jun_17_1042","visual_demo1",2002-03-01,99.6825894
"001_visual_demo1.csv","Now focus on the Image",2.5,0,1,0,0,0,0,6,5,113,4,NA,NA,NA,NA,NA,NA,NA,NA,NA,NA,NA,NA,1112.203631,"None",NA,NA,NA,NA,NA,NA,1104.796207,"None",1104.796207,"None",1108.246106,"None","space",0.448085336,1108.246106,"None",1108.709105,"None","space",3.484178321,1108.709105,"None",1108.709105,"None",1,1,"2019_Jun_17_1042","visual_demo1",2002-03-01,99.6825894
"001_visual_demo1.csv","Now focus on the Image",3.5,1,0,0,0,0,0,6,6,114,6,NA,NA,NA,NA,NA,NA,NA,NA,NA,NA,NA,NA,1123.815659,"None",NA,NA,NA,NA,NA,NA,1113.259171,"None",1113.259171,"None",1117.704046,"None","space",2.557153611,1117.704046,"None",1120.273673,"None","space",3.522509424,1120.273673,"None",1120.273673,"None",1,1,"2019_Jun_17_1042","visual_demo1",2002-03-01,99.6825894
"001_visual_demo1.csv","Now focus on the Image",2.5,0,0,0,0,0,0,6,7,115,16,NA,NA,NA,NA,NA,NA,NA,NA,NA,NA,NA,NA,1131.900942,"None",NA,NA,NA,NA,NA,NA,1124.86214,"None",1124.86214,"None",1128.306543,"None","space",0.410692634,1128.306543,"None",1128.730239,"None","space",3.158976294,1128.730239,"None",1128.730239,"None",1,1,"2019_Jun_17_1042","visual_demo1",2002-03-01,99.6825894
"001_visual_demo1.csv","Now focus on the Image",3.5,0,1,0,0,0,0,6,8,116,0,NA,NA,NA,NA,NA,NA,NA,NA,NA,NA,NA,NA,1142.50381,"None",NA,NA,NA,NA,NA,NA,1132.96754,"None",1132.96754,"None",1137.401606,"None","space",0.467592649,1137.401606,"None",1137.884912,"None","space",4.603291999,1137.884912,"None",1137.884912,"None",1,1,"2019_Jun_17_1042","visual_demo1",2002-03-01,99.6825894
"001_visual_demo1.csv","Now focus on the Image",1,0,1,0,0,0,0,6,9,117,1,NA,NA,NA,NA,NA,NA,NA,NA,NA,NA,NA,NA,1149.095957,"None",NA,NA,NA,NA,NA,NA,1143.566968,"None",1143.566968,"None",1145.506742,"None","space",1.04847429,1145.506742,"None",1146.571005,"None","space",2.51019256,1146.571005,"None",1146.571005,"None",1,1,"2019_Jun_17_1042","visual_demo1",2002-03-01,99.6825894
"001_visual_demo1.csv","Now focus on the Image",1.5,0,0,0,0,0,0,6,10,118,14,NA,NA,NA,NA,NA,NA,NA,NA,NA,NA,NA,NA,1156.198456,"None",NA,NA,NA,NA,NA,NA,1150.151113,"None",1150.151113,"None",1152.610185,"None","space",0.490038273,1152.610185,"None",1153.115997,"None","space",3.075215332,1153.115997,"None",1153.115997,"None",1,1,"2019_Jun_17_1042","visual_demo1",2002-03-01,99.6825894
"001_visual_demo1.csv","Now focus on the Image",2,0,1,0,0,0,0,6,11,119,3,NA,NA,NA,NA,NA,NA,NA,NA,NA,NA,NA,NA,1163.340541,"None",NA,NA,NA,NA,NA,NA,1157.262716,"None",1157.262716,"None",1160.204572,"None","space",0.426634538,1160.204572,"None",1160.647412,"None","space",2.681829723,1160.647412,"None",1160.647412,"None",1,1,"2019_Jun_17_1042","visual_demo1",2002-03-01,99.6825894
"001_visual_demo1.csv","Now focus on the Image",3,0,0,0,0,0,0,6,12,120,17,NA,NA,NA,NA,NA,NA,NA,NA,NA,NA,NA,NA,1171.648982,"None",NA,NA,NA,NA,NA,NA,1164.408077,"None",1164.408077,"None",1168.339947,"None","space",0.619298024,1168.339947,"None",1168.97611,"None","space",2.659101008,1168.97611,"None",1168.97611,"None",1,1,"2019_Jun_17_1042","visual_demo1",2002-03-01,99.6825894
"001_visual_demo1.csv","Now focus on the Image",3.5,0,0,0,0,0,0,6,13,121,12,NA,NA,NA,NA,NA,NA,NA,NA,NA,NA,NA,NA,1181.437663,"None",NA,NA,NA,NA,NA,NA,1172.702677,"None",1172.702677,"None",1177.149417,"None","space",0.493812714,1177.149417,"None",1177.662339,"None","space",3.75889717,1177.662339,"None",1177.662339,"None",1,1,"2019_Jun_17_1042","visual_demo1",2002-03-01,99.6825894
"001_visual_demo1.csv","Now focus on the Image",2,1,0,0,0,0,0,6,14,122,9,NA,NA,NA,NA,NA,NA,NA,NA,NA,NA,NA,NA,1190.311987,"None",NA,NA,NA,NA,NA,NA,1182.49107,"None",1182.49107,"None",1185.445114,"None","space",2.010346448,1185.445114,"None",1187.471261,"None","space",2.826043926,1187.471261,"None",1187.471261,"None",1,1,"2019_Jun_17_1042","visual_demo1",2002-03-01,99.6825894
"001_visual_demo1.csv","Now focus on the Image",3,1,0,0,0,0,0,6,15,123,11,NA,NA,NA,NA,NA,NA,NA,NA,NA,NA,NA,NA,1199.719327,"None",NA,NA,NA,NA,NA,NA,1191.37792,"None",1191.37792,"None",1195.321039,"None","space",0.554195743,1195.321039,"None",1195.887305,"None","space",3.823929881,1195.887305,"None",1195.887305,"None",1,1,"2019_Jun_17_1042","visual_demo1",2002-03-01,99.6825894
"001_visual_demo1.csv","Now focus on the Image",1,0,0,0,0,0,0,6,16,124,13,NA,NA,NA,NA,NA,NA,NA,NA,NA,NA,NA,NA,1207.824716,"None",NA,NA,NA,NA,NA,NA,1200.788041,"None",1200.788041,"None",1202.72512,"None","space",2.14912229,1202.72512,"None",1204.893777,"None","space",2.921460673,1204.893777,"None",1204.893777,"None",1,1,"2019_Jun_17_1042","visual_demo1",2002-03-01,99.6825894
"001_visual_demo1.csv","Now focus on the Image",2,0,0,0,0,0,0,6,17,125,15,NA,NA,NA,NA,NA,NA,NA,NA,NA,NA,NA,NA,1215.980237,"None",NA,NA,NA,NA,NA,NA,1208.894498,"None",1208.894498,"None",1211.832328,"None","space",0.489967741,1211.832328,"None",1212.336155,"None","space",3.627102103,1212.336155,"None",1212.336155,"None",1,1,"2019_Jun_17_1042","visual_demo1",2002-03-01,99.6825894
"001_visual_demo1.csv","Now focus on the Image",2,0,0,0,0,0,0,7,0,126,15,NA,NA,NA,NA,NA,NA,NA,NA,NA,NA,NA,NA,1223.063619,"None",NA,NA,NA,NA,NA,NA,1217.049784,"None",1217.049784,"None",1219.987826,"None","space",0.314455148,1219.987826,"None",1220.313912,"None","space",2.731370975,1220.313912,"None",1220.313912,"None",1,1,"2019_Jun_17_1042","visual_demo1",2002-03-01,99.6825894
"001_visual_demo1.csv","Now focus on the Image",3,0,0,0,0,0,0,7,1,127,17,NA,NA,NA,NA,NA,NA,NA,NA,NA,NA,NA,NA,1231.462298,"None",NA,NA,NA,NA,NA,NA,1224.122204,"None",1224.122204,"None",1228.063075,"None","space",0.421180788,1228.063075,"None",1228.496482,"None","space",2.945794319,1228.496482,"None",1228.496482,"None",1,1,"2019_Jun_17_1042","visual_demo1",2002-03-01,99.6825894
"001_visual_demo1.csv","Now focus on the Image",2,1,0,0,0,0,0,7,2,128,9,NA,NA,NA,NA,NA,NA,NA,NA,NA,NA,NA,NA,1239.685132,"None",NA,NA,NA,NA,NA,NA,1232.526118,"None",1232.526118,"None",1235.467133,"None","space",2.624135899,1235.467133,"None",1238.107416,"None","space",1.56294784,1238.107416,"None",1238.107416,"None",1,1,"2019_Jun_17_1042","visual_demo1",2002-03-01,99.6825894
"001_visual_demo1.csv","Now focus on the Image",2.5,0,1,0,0,0,0,7,3,129,4,NA,NA,NA,NA,NA,NA,NA,NA,NA,NA,NA,NA,1248.882658,"None",NA,NA,NA,NA,NA,NA,1240.75364,"None",1240.75364,"None",1244.183664,"None","space",2.061695892,1244.183664,"None",1246.259409,"None","space",2.608890982,1246.259409,"None",1246.259409,"None",1,1,"2019_Jun_17_1042","visual_demo1",2002-03-01,99.6825894
"001_visual_demo1.csv","Now focus on the Image",1.5,1,0,0,0,0,0,7,4,130,8,NA,NA,NA,NA,NA,NA,NA,NA,NA,NA,NA,NA,1255.385107,"None",NA,NA,NA,NA,NA,NA,1249.94985,"None",1249.94985,"None",1252.389212,"None","space",0.817092735,1252.389212,"None",1253.2235,"None","space",2.151799311,1253.2235,"None",1253.2235,"None",1,1,"2019_Jun_17_1042","visual_demo1",2002-03-01,99.6825894
"001_visual_demo1.csv","Now focus on the Image",2,0,1,0,0,0,0,7,5,131,3,NA,NA,NA,NA,NA,NA,NA,NA,NA,NA,NA,NA,1262.388283,"None",NA,NA,NA,NA,NA,NA,1256.451711,"None",1256.451711,"None",1259.39245,"None","space",0.313824525,1259.39245,"None",1259.718814,"None","space",2.658508537,1259.718814,"None",1259.718814,"None",1,1,"2019_Jun_17_1042","visual_demo1",2002-03-01,99.6825894
"001_visual_demo1.csv","Now focus on the Image",1,1,0,0,0,0,0,7,6,132,7,NA,NA,NA,NA,NA,NA,NA,NA,NA,NA,NA,NA,1267.337549,"None",NA,NA,NA,NA,NA,NA,1263.456815,"None",1263.456815,"None",1265.396581,"None","space",0.668721294,1265.396581,"None",1266.077073,"None","space",1.246219308,1266.077073,"None",1266.077073,"None",1,1,"2019_Jun_17_1042","visual_demo1",2002-03-01,99.6825894
"001_visual_demo1.csv","Now focus on the Image",1.5,0,1,0,0,0,0,7,7,133,2,NA,NA,NA,NA,NA,NA,NA,NA,NA,NA,NA,NA,1275.102107,"None",NA,NA,NA,NA,NA,NA,1268.403813,"None",1268.403813,"None",1270.846912,"None","space",0.324402126,1270.846912,"None",1271.186801,"None","space",3.907569976,1271.186801,"None",1271.186801,"None",1,1,"2019_Jun_17_1042","visual_demo1",2002-03-01,99.6825894
"001_visual_demo1.csv","Now focus on the Image",1,0,1,0,0,0,0,7,8,134,1,NA,NA,NA,NA,NA,NA,NA,NA,NA,NA,NA,NA,1284.262331,"None",NA,NA,NA,NA,NA,NA,1276.158236,"None",1276.158236,"None",1278.107961,"None","space",2.269364485,1278.107961,"None",1280.394842,"None","space",3.849485018,1280.394842,"None",1280.394842,"None",1,1,"2019_Jun_17_1042","visual_demo1",2002-03-01,99.6825894
"001_visual_demo1.csv","Now focus on the Image",2.5,0,0,0,0,0,0,7,9,135,16,NA,NA,NA,NA,NA,NA,NA,NA,NA,NA,NA,NA,1291.924099,"None",NA,NA,NA,NA,NA,NA,1285.327919,"None",1285.327919,"None",1288.770958,"None","space",0.271370808,1288.770958,"None",1289.053315,"None","space",2.856053179,1289.053315,"None",1289.053315,"None",1,1,"2019_Jun_17_1042","visual_demo1",2002-03-01,99.6825894
"001_visual_demo1.csv","Now focus on the Image",1,0,0,0,0,0,0,7,10,136,13,NA,NA,NA,NA,NA,NA,NA,NA,NA,NA,NA,NA,1298.09569,"None",NA,NA,NA,NA,NA,NA,1292.98114,"None",1292.98114,"None",1294.929744,"None","space",0.603592723,1294.929744,"None",1295.556346,"None","space",2.52997591,1295.556346,"None",1295.556346,"None",1,1,"2019_Jun_17_1042","visual_demo1",2002-03-01,99.6825894
"001_visual_demo1.csv","Now focus on the Image",3.5,1,0,0,0,0,0,7,11,137,6,NA,NA,NA,NA,NA,NA,NA,NA,NA,NA,NA,NA,1307.926868,"None",NA,NA,NA,NA,NA,NA,1299.16023,"None",1299.16023,"None",1303.596212,"None","space",1.063127377,1303.596212,"None",1304.672921,"None","space",3.239437627,1304.672921,"None",1304.672921,"None",1,1,"2019_Jun_17_1042","visual_demo1",2002-03-01,99.6825894
"001_visual_demo1.csv","Now focus on the Image",1.5,0,0,0,0,0,0,7,12,138,14,NA,NA,NA,NA,NA,NA,NA,NA,NA,NA,NA,NA,1312.803755,"None",NA,NA,NA,NA,NA,NA,1308.991547,"None",1308.991547,"None",1311.430954,"None","space",0.106409527,1311.430954,"None",1311.555776,"None","space",1.22960382,1311.555776,"None",1311.555776,"None",1,1,"2019_Jun_17_1042","visual_demo1",2002-03-01,99.6825894
"001_visual_demo1.csv","Now focus on the Image",3,1,0,0,0,0,0,7,13,139,11,NA,NA,NA,NA,NA,NA,NA,NA,NA,NA,NA,NA,1321.640535,"None",NA,NA,NA,NA,NA,NA,1313.870893,"None",1313.870893,"None",1317.813806,"None","space",0.917549015,1317.813806,"None",1318.749977,"None","space",2.875376146,1318.749977,"None",1318.749977,"None",1,1,"2019_Jun_17_1042","visual_demo1",2002-03-01,99.6825894
"001_visual_demo1.csv","Now focus on the Image",3,0,1,0,0,0,0,7,14,140,5,NA,NA,NA,NA,NA,NA,NA,NA,NA,NA,NA,NA,1330.469815,"None",NA,NA,NA,NA,NA,NA,1322.697144,"None",1322.697144,"None",1326.642636,"None","space",0.315717996,1326.642636,"None",1326.973508,"None","space",3.48000922,1326.973508,"None",1326.973508,"None",1,1,"2019_Jun_17_1042","visual_demo1",2002-03-01,99.6825894
"001_visual_demo1.csv","Now focus on the Image",2.5,1,0,0,0,0,0,7,15,141,10,NA,NA,NA,NA,NA,NA,NA,NA,NA,NA,NA,NA,1337.780918,"None",NA,NA,NA,NA,NA,NA,1331.523593,"None",1331.523593,"None",1334.978373,"None","space",0.127988566,1334.978373,"None",1335.121413,"None","space",2.652005458,1335.121413,"None",1335.121413,"None",1,1,"2019_Jun_17_1042","visual_demo1",2002-03-01,99.6825894
"001_visual_demo1.csv","Now focus on the Image",3.5,0,1,0,0,0,0,7,16,142,0,NA,NA,NA,NA,NA,NA,NA,NA,NA,NA,NA,NA,1346.988916,"None",NA,NA,NA,NA,NA,NA,1338.847084,"None",1338.847084,"None",1343.293918,"None","space",0.36546828,1343.293918,"None",1343.674951,"None","space",3.304417759,1343.674951,"None",1343.674951,"None",1,1,"2019_Jun_17_1042","visual_demo1",2002-03-01,99.6825894
"001_visual_demo1.csv","Now focus on the Image",3.5,0,0,0,0,0,0,7,17,143,12,NA,NA,NA,NA,NA,NA,NA,NA,NA,NA,NA,NA,1356.679531,"None",NA,NA,NA,NA,NA,NA,1348.057539,"None",1348.057539,"None",1352.498732,"None","space",0.370695686,1352.498732,"None",1352.882149,"None","space",3.784246802,1352.882149,"None",1352.882149,"None",1,1,"2019_Jun_17_1042","visual_demo1",2002-03-01,99.6825894
"001_visual_demo1.csv","Now focus on the Image",2,0,0,0,0,0,0,8,0,144,15,NA,NA,NA,NA,NA,NA,NA,NA,NA,NA,NA,NA,1364.471466,"None",NA,NA,NA,NA,NA,NA,1357.74464,"None",1357.74464,"None",1360.6743,"None","space",0.707089908,1360.6743,"None",1361.397448,"None","space",3.06695119,1361.397448,"None",1361.397448,"None",1,1,"2019_Jun_17_1042","visual_demo1",2002-03-01,99.6825894
"001_visual_demo1.csv","Now focus on the Image",1,0,0,0,0,0,0,8,1,145,13,NA,NA,NA,NA,NA,NA,NA,NA,NA,NA,NA,NA,1372.115974,"None",NA,NA,NA,NA,NA,NA,1365.531228,"None",1365.531228,"None",1367.477203,"None","space",0.877187543,1367.477203,"None",1368.37114,"None","space",3.7272583,1368.37114,"None",1368.37114,"None",1,1,"2019_Jun_17_1042","visual_demo1",2002-03-01,99.6825894
"001_visual_demo1.csv","Now focus on the Image",3,0,0,0,0,0,0,8,2,146,17,NA,NA,NA,NA,NA,NA,NA,NA,NA,NA,NA,NA,1387.535148,"None",NA,NA,NA,NA,NA,NA,1373.181046,"None",1373.181046,"None",1377.128299,"None","space",4.133106326,1377.128299,"None",1381.276458,"None","space",6.246951882,1381.276458,"None",1381.276458,"None",1,1,"2019_Jun_17_1042","visual_demo1",2002-03-01,99.6825894
"001_visual_demo1.csv","Now focus on the Image",1,0,1,0,0,0,0,8,3,147,1,NA,NA,NA,NA,NA,NA,NA,NA,NA,NA,NA,NA,1394.491144,"None",NA,NA,NA,NA,NA,NA,1388.602529,"None",1388.602529,"None",1390.543262,"None","space",0.437170782,1390.543262,"None",1390.994549,"None","space",3.480892157,1390.994549,"None",1390.994549,"None",1,1,"2019_Jun_17_1042","visual_demo1",2002-03-01,99.6825894
"001_visual_demo1.csv","Now focus on the Image",3.5,0,1,0,0,0,0,8,4,148,0,NA,NA,NA,NA,NA,NA,NA,NA,NA,NA,NA,NA,1403.979099,"None",NA,NA,NA,NA,NA,NA,1395.545271,"None",1395.545271,"None",1399.988806,"None","space",0.387687239,1399.988806,"None",1400.391771,"None","space",3.573701132,1400.391771,"None",1400.391771,"None",1,1,"2019_Jun_17_1042","visual_demo1",2002-03-01,99.6825894
"001_visual_demo1.csv","Now focus on the Image",2.5,1,0,0,0,0,0,8,5,149,10,NA,NA,NA,NA,NA,NA,NA,NA,NA,NA,NA,NA,1411.680919,"None",NA,NA,NA,NA,NA,NA,1405.04131,"None",1405.04131,"None",1408.474891,"None","space",0.65154251,1408.474891,"None",1409.138127,"None","space",2.532301553,1409.138127,"None",1409.138127,"None",1,1,"2019_Jun_17_1042","visual_demo1",2002-03-01,99.6825894
"001_visual_demo1.csv","Now focus on the Image",3.5,1,0,0,0,0,0,8,6,150,6,NA,NA,NA,NA,NA,NA,NA,NA,NA,NA,NA,NA,1421.542538,"None",NA,NA,NA,NA,NA,NA,1412.748527,"None",1412.748527,"None",1417.191279,"None","space",0.566161228,1417.191279,"None",1417.777954,"None","space",3.7505439,1417.777954,"None",1417.777954,"None",1,1,"2019_Jun_17_1042","visual_demo1",2002-03-01,99.6825894
"001_visual_demo1.csv","Now focus on the Image",2.5,0,1,0,0,0,0,8,7,151,4,NA,NA,NA,NA,NA,NA,NA,NA,NA,NA,NA,NA,1429.494625,"None",NA,NA,NA,NA,NA,NA,1422.599401,"None",1422.599401,"None",1426.048143,"None","space",0.623282138,1426.048143,"None",1426.691654,"None","space",2.796817903,1426.691654,"None",1426.691654,"None",1,1,"2019_Jun_17_1042","visual_demo1",2002-03-01,99.6825894
"001_visual_demo1.csv","Now focus on the Image",1,1,0,0,0,0,0,8,8,152,7,NA,NA,NA,NA,NA,NA,NA,NA,NA,NA,NA,NA,1434.904956,"None",NA,NA,NA,NA,NA,NA,1430.560785,"None",1430.560785,"None",1432.500397,"None","space",0.296055833,1432.500397,"None",1432.815741,"None","space",2.082703619,1432.815741,"None",1432.815741,"None",1,1,"2019_Jun_17_1042","visual_demo1",2002-03-01,99.6825894
"001_visual_demo1.csv","Now focus on the Image",1.5,0,1,0,0,0,0,8,9,153,2,NA,NA,NA,NA,NA,NA,NA,NA,NA,NA,NA,NA,1440.75604,"None",NA,NA,NA,NA,NA,NA,1435.972706,"None",1435.972706,"None",1438.411576,"None","space",0.355876848,1438.411576,"None",1438.787533,"None","space",1.959929314,1438.787533,"None",1438.787533,"None",1,1,"2019_Jun_17_1042","visual_demo1",2002-03-01,99.6825894
"001_visual_demo1.csv","Now focus on the Image",2,1,0,0,0,0,0,8,10,154,9,NA,NA,NA,NA,NA,NA,NA,NA,NA,NA,NA,NA,1448.380365,"None",NA,NA,NA,NA,NA,NA,1441.812311,"None",1441.812311,"None",1444.753644,"None","space",0.346824347,1444.753644,"None",1445.116662,"None","space",3.256784086,1445.116662,"None",1445.116662,"None",1,1,"2019_Jun_17_1042","visual_demo1",2002-03-01,99.6825894
"001_visual_demo1.csv","Now focus on the Image",1.5,1,0,0,0,0,0,8,11,155,8,NA,NA,NA,NA,NA,NA,NA,NA,NA,NA,NA,NA,1455.105959,"None",NA,NA,NA,NA,NA,NA,1449.448111,"None",1449.448111,"None",1451.887099,"None","space",0.403350541,1451.887099,"None",1452.302489,"None","space",2.785048305,1452.302489,"None",1452.302489,"None",1,1,"2019_Jun_17_1042","visual_demo1",2002-03-01,99.6825894
"001_visual_demo1.csv","Now focus on the Image",2,0,1,0,0,0,0,8,12,156,3,NA,NA,NA,NA,NA,NA,NA,NA,NA,NA,NA,NA,1462.068674,"None",NA,NA,NA,NA,NA,NA,1456.173407,"None",1456.173407,"None",1459.10077,"None","space",0.387710002,1459.10077,"None",1459.503673,"None","space",2.547775058,1459.503673,"None",1459.503673,"None",1,1,"2019_Jun_17_1042","visual_demo1",2002-03-01,99.6825894
"001_visual_demo1.csv","Now focus on the Image",1.5,0,0,0,0,0,0,8,13,157,14,NA,NA,NA,NA,NA,NA,NA,NA,NA,NA,NA,NA,1468.478597,"None",NA,NA,NA,NA,NA,NA,1463.132466,"None",1463.132466,"None",1465.575823,"None","space",0.520634227,1465.575823,"None",1466.108591,"None","space",2.356894116,1466.108591,"None",1466.108591,"None",1,1,"2019_Jun_17_1042","visual_demo1",2002-03-01,99.6825894
"001_visual_demo1.csv","Now focus on the Image",2.5,0,0,0,0,0,0,8,14,158,16,NA,NA,NA,NA,NA,NA,NA,NA,NA,NA,NA,NA,1476.954598,"None",NA,NA,NA,NA,NA,NA,1469.546682,"None",1469.546682,"None",1472.989998,"None","space",0.55848026,1472.989998,"None",1473.562984,"None","space",3.378521566,1473.562984,"None",1473.562984,"None",1,1,"2019_Jun_17_1042","visual_demo1",2002-03-01,99.6825894
"001_visual_demo1.csv","Now focus on the Image",3.5,0,0,0,0,0,0,8,15,159,12,NA,NA,NA,NA,NA,NA,NA,NA,NA,NA,NA,NA,1487.04359,"None",NA,NA,NA,NA,NA,NA,1478.021834,"None",1478.021834,"None",1482.466117,"None","space",0.322384902,1482.466117,"None",1482.808441,"None","space",4.229058477,1482.808441,"None",1482.808441,"None",1,1,"2019_Jun_17_1042","visual_demo1",2002-03-01,99.6825894
"001_visual_demo1.csv","Now focus on the Image",3,0,1,0,0,0,0,8,16,160,5,NA,NA,NA,NA,NA,NA,NA,NA,NA,NA,NA,NA,1497.145248,"None",NA,NA,NA,NA,NA,NA,1488.111511,"None",1488.111511,"None",1492.044,"None","space",1.355498538,1492.044,"None",1493.417813,"None","space",3.712697226,1493.417813,"None",1493.417813,"None",1,1,"2019_Jun_17_1042","visual_demo1",2002-03-01,99.6825894
"001_visual_demo1.csv","Now focus on the Image",3,1,0,0,0,0,0,8,17,161,11,NA,NA,NA,NA,NA,NA,NA,NA,NA,NA,NA,NA,1507.625443,"None",NA,NA,NA,NA,NA,NA,1498.204256,"None",1498.204256,"None",1502.152322,"None","space",0.64918673,1502.152322,"None",1502.815626,"None","space",4.799862334,1502.815626,"None",1502.815626,"None",1,1,"2019_Jun_17_1042","visual_demo1",2002-03-01,99.6825894
"001_visual_demo1.csv","Now focus on the Image",3.5,0,0,0,0,0,0,9,0,162,12,NA,NA,NA,NA,NA,NA,NA,NA,NA,NA,NA,NA,1516.970373,"None",NA,NA,NA,NA,NA,NA,1508.690342,"None",1508.690342,"None",1513.135905,"None","space",0.337675024,1513.135905,"None",1513.486092,"None","space",3.472440463,1513.486092,"None",1513.486092,"None",1,1,"2019_Jun_17_1042","visual_demo1",2002-03-01,99.6825894
"001_visual_demo1.csv","Now focus on the Image",2,1,0,0,0,0,0,9,1,163,9,NA,NA,NA,NA,NA,NA,NA,NA,NA,NA,NA,NA,1523.98368,"None",NA,NA,NA,NA,NA,NA,1518.026526,"None",1518.026526,"None",1520.970355,"None","space",0.376174764,1520.970355,"None",1521.363585,"None","space",2.607964444,1521.363585,"None",1521.363585,"None",1,1,"2019_Jun_17_1042","visual_demo1",2002-03-01,99.6825894
"001_visual_demo1.csv","Now focus on the Image",2.5,0,0,0,0,0,0,9,2,164,16,NA,NA,NA,NA,NA,NA,NA,NA,NA,NA,NA,NA,1531.891498,"None",NA,NA,NA,NA,NA,NA,1525.040396,"None",1525.040396,"None",1528.482167,"None","space",0.339365555,1528.482167,"None",1528.834925,"None","space",3.040609617,1528.834925,"None",1528.834925,"None",1,1,"2019_Jun_17_1042","visual_demo1",2002-03-01,99.6825894
"001_visual_demo1.csv","Now focus on the Image",3.5,1,0,0,0,0,0,9,3,165,6,NA,NA,NA,NA,NA,NA,NA,NA,NA,NA,NA,NA,1540.69535,"None",NA,NA,NA,NA,NA,NA,1532.945894,"None",1532.945894,"None",1537.399877,"None","space",0.271657746,1537.399877,"None",1537.685186,"None","space",2.998345376,1537.685186,"None",1537.685186,"None",1,1,"2019_Jun_17_1042","visual_demo1",2002-03-01,99.6825894
"001_visual_demo1.csv","Now focus on the Image",3.5,0,1,0,0,0,0,9,4,166,0,NA,NA,NA,NA,NA,NA,NA,NA,NA,NA,NA,NA,1550.015446,"None",NA,NA,NA,NA,NA,NA,1541.76157,"None",1541.76157,"None",1546.195801,"None","space",0.34288095,1546.195801,"None",1546.558471,"None","space",3.441083722,1546.558471,"None",1546.558471,"None",1,1,"2019_Jun_17_1042","visual_demo1",2002-03-01,99.6825894
"001_visual_demo1.csv","Now focus on the Image",3,0,0,0,0,0,0,9,5,167,17,NA,NA,NA,NA,NA,NA,NA,NA,NA,NA,NA,NA,1558.870058,"None",NA,NA,NA,NA,NA,NA,1551.08146,"None",1551.08146,"None",1555.022468,"None","space",0.474100216,1555.022468,"None",1555.516054,"None","space",3.344512811,1555.516054,"None",1555.516054,"None",1,1,"2019_Jun_17_1042","visual_demo1",2002-03-01,99.6825894
"001_visual_demo1.csv","Now focus on the Image",2,0,0,0,0,0,0,9,6,168,15,NA,NA,NA,NA,NA,NA,NA,NA,NA,NA,NA,NA,1566.034066,"None",NA,NA,NA,NA,NA,NA,1559.938852,"None",1559.938852,"None",1562.877344,"None","space",0.399227607,1562.877344,"None",1563.292751,"None","space",2.728780516,1563.292751,"None",1563.292751,"None",1,1,"2019_Jun_17_1042","visual_demo1",2002-03-01,99.6825894
"001_visual_demo1.csv","Now focus on the Image",1.5,0,0,0,0,0,0,9,7,169,14,NA,NA,NA,NA,NA,NA,NA,NA,NA,NA,NA,NA,1571.797075,"None",NA,NA,NA,NA,NA,NA,1567.099836,"None",1567.099836,"None",1569.529894,"None","space",0.50466988,1569.529894,"None",1570.046257,"None","space",1.737361412,1570.046257,"None",1570.046257,"None",1,1,"2019_Jun_17_1042","visual_demo1",2002-03-01,99.6825894
"001_visual_demo1.csv","Now focus on the Image",3,1,0,0,0,0,0,9,8,170,11,NA,NA,NA,NA,NA,NA,NA,NA,NA,NA,NA,NA,1580.36048,"None",NA,NA,NA,NA,NA,NA,1572.861282,"None",1572.861282,"None",1576.796211,"None","space",0.284362859,1576.796211,"None",1577.097199,"None","space",3.248378238,1577.097199,"None",1577.097199,"None",1,1,"2019_Jun_17_1042","visual_demo1",2002-03-01,99.6825894
"001_visual_demo1.csv","Now focus on the Image",3,0,1,0,0,0,0,9,9,171,5,NA,NA,NA,NA,NA,NA,NA,NA,NA,NA,NA,NA,1588.976836,"None",NA,NA,NA,NA,NA,NA,1581.426495,"None",1581.426495,"None",1585.359946,"None","space",0.369699898,1585.359946,"None",1585.743431,"None","space",3.216146256,1585.743431,"None",1585.743431,"None",1,1,"2019_Jun_17_1042","visual_demo1",2002-03-01,99.6825894
"001_visual_demo1.csv","Now focus on the Image",1.5,0,1,0,0,0,0,9,10,172,2,NA,NA,NA,NA,NA,NA,NA,NA,NA,NA,NA,NA,1595.251457,"None",NA,NA,NA,NA,NA,NA,1590.043103,"None",1590.043103,"None",1592.484189,"None","space",0.352470458,1592.484189,"None",1592.859201,"None","space",2.371389467,1592.859201,"None",1592.859201,"None",1,1,"2019_Jun_17_1042","visual_demo1",2002-03-01,99.6825894
"001_visual_demo1.csv","Now focus on the Image",1,0,1,0,0,0,0,9,11,173,1,NA,NA,NA,NA,NA,NA,NA,NA,NA,NA,NA,NA,1600.799205,"None",NA,NA,NA,NA,NA,NA,1596.306287,"None",1596.306287,"None",1598.254414,"None","space",0.527172892,1598.254414,"None",1598.79777,"None","space",1.982869626,1598.79777,"None",1598.79777,"None",1,1,"2019_Jun_17_1042","visual_demo1",2002-03-01,99.6825894
"001_visual_demo1.csv","Now focus on the Image",1,0,0,0,0,0,0,9,12,174,13,NA,NA,NA,NA,NA,NA,NA,NA,NA,NA,NA,NA,1604.938619,"None",NA,NA,NA,NA,NA,NA,1601.864619,"None",1601.864619,"None",1603.804858,"None","space",0.148734682,1603.804858,"None",1603.967714,"None","space",0.959882185,1603.967714,"None",1603.967714,"None",1,1,"2019_Jun_17_1042","visual_demo1",2002-03-01,99.6825894
"001_visual_demo1.csv","Now focus on the Image",2.5,1,0,0,0,0,0,9,13,175,10,NA,NA,NA,NA,NA,NA,NA,NA,NA,NA,NA,NA,1612.924932,"None",NA,NA,NA,NA,NA,NA,1606.005735,"None",1606.005735,"None",1609.445693,"None","space",0.347921766,1609.445693,"None",1609.808766,"None","space",3.094857618,1609.808766,"None",1609.808766,"None",1,1,"2019_Jun_17_1042","visual_demo1",2002-03-01,99.6825894
"001_visual_demo1.csv","Now focus on the Image",1.5,1,0,0,0,0,0,9,14,176,8,NA,NA,NA,NA,NA,NA,NA,NA,NA,NA,NA,NA,1619.625037,"None",NA,NA,NA,NA,NA,NA,1613.989059,"None",1613.989059,"None",1616.428995,"None","space",0.4196201,1616.428995,"None",1616.864914,"None","space",2.748703969,1616.864914,"None",1616.864914,"None",1,1,"2019_Jun_17_1042","visual_demo1",2002-03-01,99.6825894
"001_visual_demo1.csv","Now focus on the Image",2.5,0,1,0,0,0,0,9,15,177,4,NA,NA,NA,NA,NA,NA,NA,NA,NA,NA,NA,NA,1628.323722,"None",NA,NA,NA,NA,NA,NA,1620.6818,"None",1620.6818,"None",1624.126177,"None","space",0.560486263,1624.126177,"None",1624.699405,"None","space",3.609201004,1624.699405,"None",1624.699405,"None",1,1,"2019_Jun_17_1042","visual_demo1",2002-03-01,99.6825894
"001_visual_demo1.csv","Now focus on the Image",1,1,0,0,0,0,0,9,16,178,7,NA,NA,NA,NA,NA,NA,NA,NA,NA,NA,NA,NA,1634.473115,"None",NA,NA,NA,NA,NA,NA,1629.387399,"None",1629.387399,"None",1631.329471,"None","space",0.538439146,1631.329471,"None",1631.880872,"None","space",2.579756971,1631.880872,"None",1631.880872,"None",1,1,"2019_Jun_17_1042","visual_demo1",2002-03-01,99.6825894
"001_visual_demo1.csv","Now focus on the Image",2,0,1,0,0,0,0,9,17,179,3,NA,NA,NA,NA,NA,NA,NA,NA,NA,NA,NA,NA,1642.117422,"None",NA,NA,NA,NA,NA,NA,1635.528862,"None",1635.528862,"None",1638.47058,"None","space",0.28622908,1638.47058,"None",1638.775842,"None","space",3.333793503,1638.775842,"None",1638.775842,"None",1,1,"2019_Jun_17_1042","visual_demo1",2002-03-01,99.6825894
"001_visual_demo1.csv","Now focus on the Sound",1.5,0,1,0,1,1,1,0,0,0,2,NA,NA,NA,NA,NA,NA,NA,NA,NA,NA,NA,NA,1653.209691,"None",1643.125145,"None","space",3.564700889,1643.125145,"None",1646.768418,"None",1646.768418,"None",1649.223654,"None","space",1.211975232,1649.223654,"None",1650.456318,"None","space",2.736481361,1650.456318,"None",1650.456318,"None",1,1,"2019_Jun_17_1042","visual_demo1",2002-03-01,99.6825894
"001_visual_demo1.csv","Now focus on the Sound",3,1,0,0,1,1,1,0,1,1,11,NA,NA,NA,NA,NA,NA,NA,NA,NA,NA,NA,NA,1667.375372,"None",NA,NA,NA,NA,NA,NA,1654.276456,"None",1654.276456,"None",1658.217943,"None","space",4.011723111,1658.217943,"None",1662.247482,"None","space",5.109194592,1662.247482,"None",1662.247482,"None",1,1,"2019_Jun_17_1042","visual_demo1",2002-03-01,99.6825894
"001_visual_demo1.csv","Now focus on the Sound",3,0,0,0,1,1,1,0,2,2,17,NA,NA,NA,NA,NA,NA,NA,NA,NA,NA,NA,NA,1676.793046,"None",NA,NA,NA,NA,NA,NA,1668.441803,"None",1668.441803,"None",1672.37757,"None","space",0.856087163,1672.37757,"None",1673.251088,"None","space",3.534557625,1673.251088,"None",1673.251088,"None",1,1,"2019_Jun_17_1042","visual_demo1",2002-03-01,99.6825894
"001_visual_demo1.csv","Now focus on the Sound",3.5,0,1,0,1,1,1,0,3,3,0,NA,NA,NA,NA,NA,NA,NA,NA,NA,NA,NA,NA,1687.345883,"None",NA,NA,NA,NA,NA,NA,1677.860038,"None",1677.860038,"None",1682.293557,"None","space",1.125077826,1682.293557,"None",1683.431011,"None","space",3.896662155,1683.431011,"None",1683.431011,"None",1,1,"2019_Jun_17_1042","visual_demo1",2002-03-01,99.6825894
"001_visual_demo1.csv","Now focus on the Sound",1,1,0,0,1,1,1,0,4,4,7,NA,NA,NA,NA,NA,NA,NA,NA,NA,NA,NA,NA,1696.370256,"None",NA,NA,NA,NA,NA,NA,1688.404517,"None",1688.404517,"None",1690.351686,"None","space",2.339003917,1690.351686,"None",1692.708342,"None","space",3.647451636,1692.708342,"None",1692.708342,"None",1,1,"2019_Jun_17_1042","visual_demo1",2002-03-01,99.6825894
"001_visual_demo1.csv","Now focus on the Sound",2,1,0,0,1,1,1,0,5,5,9,NA,NA,NA,NA,NA,NA,NA,NA,NA,NA,NA,NA,1705.780591,"None",NA,NA,NA,NA,NA,NA,1697.438279,"None",1697.438279,"None",1700.377818,"None","space",2.573858867,1700.377818,"None",1702.965008,"None","space",2.794669553,1702.965008,"None",1702.965008,"None",1,1,"2019_Jun_17_1042","visual_demo1",2002-03-01,99.6825894
"001_visual_demo1.csv","Now focus on the Sound",3,0,1,0,1,1,1,0,6,6,5,NA,NA,NA,NA,NA,NA,NA,NA,NA,NA,NA,NA,1714.925376,"None",NA,NA,NA,NA,NA,NA,1706.845407,"None",1706.845407,"None",1710.787542,"None","space",0.649123893,1710.787542,"None",1711.451091,"None","space",3.452584656,1711.451091,"None",1711.451091,"None",1,1,"2019_Jun_17_1042","visual_demo1",2002-03-01,99.6825894
"001_visual_demo1.csv","Now focus on the Sound",1,0,1,0,1,1,1,0,7,7,1,NA,NA,NA,NA,NA,NA,NA,NA,NA,NA,NA,NA,1719.103243,"None",NA,NA,NA,NA,NA,NA,1715.98241,"None",1715.98241,"None",1717.923497,"None","space",0.392423804,1717.923497,"None",1718.337076,"None","space",0.755628959,1718.337076,"None",1718.337076,"None",1,1,"2019_Jun_17_1042","visual_demo1",2002-03-01,99.6825894
"001_visual_demo1.csv","Now focus on the Sound",2,0,1,0,1,1,1,0,8,8,3,NA,NA,NA,NA,NA,NA,NA,NA,NA,NA,NA,NA,1725.948712,"None",NA,NA,NA,NA,NA,NA,1720.159255,"None",1720.159255,"None",1723.10089,"None","space",0.33485245,1723.10089,"None",1723.456599,"None","space",2.477103289,1723.456599,"None",1723.456599,"None",1,1,"2019_Jun_17_1042","visual_demo1",2002-03-01,99.6825894
"001_visual_demo1.csv","Now focus on the Sound",1.5,1,0,0,1,1,1,0,9,9,8,NA,NA,NA,NA,NA,NA,NA,NA,NA,NA,NA,NA,1732.388474,"None",NA,NA,NA,NA,NA,NA,1727.0118,"None",1727.0118,"None",1729.452897,"None","space",0.352803242,1729.452897,"None",1729.826321,"None","space",2.545385296,1729.826321,"None",1729.826321,"None",1,1,"2019_Jun_17_1042","visual_demo1",2002-03-01,99.6825894
"001_visual_demo1.csv","Now focus on the Sound",1,0,0,0,1,1,1,0,10,10,13,NA,NA,NA,NA,NA,NA,NA,NA,NA,NA,NA,NA,1738.229512,"None",NA,NA,NA,NA,NA,NA,1733.454426,"None",1733.454426,"None",1735.384523,"None","space",0.388166859,1735.384523,"None",1735.787578,"None","space",2.430128773,1735.787578,"None",1735.787578,"None",1,1,"2019_Jun_17_1042","visual_demo1",2002-03-01,99.6825894
"001_visual_demo1.csv","Now focus on the Sound",2.5,0,1,0,1,1,1,0,11,11,4,NA,NA,NA,NA,NA,NA,NA,NA,NA,NA,NA,NA,1745.803777,"None",NA,NA,NA,NA,NA,NA,1739.287241,"None",1739.287241,"None",1742.738026,"None","space",0.457789299,1742.738026,"None",1743.211292,"None","space",2.586445037,1743.211292,"None",1743.211292,"None",1,1,"2019_Jun_17_1042","visual_demo1",2002-03-01,99.6825894
"001_visual_demo1.csv","Now focus on the Sound",2.5,1,0,0,1,1,1,0,12,12,10,NA,NA,NA,NA,NA,NA,NA,NA,NA,NA,NA,NA,1753.169345,"None",NA,NA,NA,NA,NA,NA,1746.872581,"None",1746.872581,"None",1750.315202,"None","space",0.626501937,1750.315202,"None",1750.959023,"None","space",2.193691975,1750.959023,"None",1750.959023,"None",1,1,"2019_Jun_17_1042","visual_demo1",2002-03-01,99.6825894
"001_visual_demo1.csv","Now focus on the Sound",3.5,1,0,0,1,1,1,0,13,13,6,NA,NA,NA,NA,NA,NA,NA,NA,NA,NA,NA,NA,1764.371868,"None",NA,NA,NA,NA,NA,NA,1754.225186,"None",1754.225186,"None",1758.671079,"None","space",2.777634398,1758.671079,"None",1761.469159,"None","space",2.891561707,1761.469159,"None",1761.469159,"None",1,1,"2019_Jun_17_1042","visual_demo1",2002-03-01,99.6825894
"001_visual_demo1.csv","Now focus on the Sound",2.5,0,0,0,1,1,1,0,14,14,16,NA,NA,NA,NA,NA,NA,NA,NA,NA,NA,NA,NA,1773.386143,"None",NA,NA,NA,NA,NA,NA,1765.436346,"None",1765.436346,"None",1768.867591,"None","space",0.404135373,1768.867591,"None",1769.28381,"None","space",4.083916454,1769.28381,"None",1769.28381,"None",1,1,"2019_Jun_17_1042","visual_demo1",2002-03-01,99.6825894
"001_visual_demo1.csv","Now focus on the Sound",2,0,0,0,1,1,1,0,15,15,15,NA,NA,NA,NA,NA,NA,NA,NA,NA,NA,NA,NA,1781.471425,"None",NA,NA,NA,NA,NA,NA,1774.454278,"None",1774.454278,"None",1777.394443,"None","space",0.925305966,1777.394443,"None",1778.341025,"None","space",3.115694144,1778.341025,"None",1778.341025,"None",1,1,"2019_Jun_17_1042","visual_demo1",2002-03-01,99.6825894
"001_visual_demo1.csv","Now focus on the Sound",3.5,0,0,0,1,1,1,0,16,16,12,NA,NA,NA,NA,NA,NA,NA,NA,NA,NA,NA,NA,1792.291901,"None",NA,NA,NA,NA,NA,NA,1782.53932,"None",1782.53932,"None",1786.974612,"None","space",1.325146563,1786.974612,"None",1788.31697,"None","space",3.959818065,1788.31697,"None",1788.31697,"None",1,1,"2019_Jun_17_1042","visual_demo1",2002-03-01,99.6825894
"001_visual_demo1.csv","Now focus on the Sound",1.5,0,0,0,1,1,1,0,17,17,14,NA,NA,NA,NA,NA,NA,NA,NA,NA,NA,NA,NA,1801.178749,"None",NA,NA,NA,NA,NA,NA,1793.361719,"None",1793.361719,"None",1795.788459,"None","space",0.826292072,1795.788459,"None",1796.635151,"None","space",4.534663423,1796.635151,"None",1796.635151,"None",1,1,"2019_Jun_17_1042","visual_demo1",2002-03-01,99.6825894
"001_visual_demo1.csv","Now focus on the Sound",3.5,0,0,0,1,1,1,1,0,18,12,NA,NA,NA,NA,NA,NA,NA,NA,NA,NA,NA,NA,1811.050209,"None",NA,NA,NA,NA,NA,NA,1802.24822,"None",1802.24822,"None",1806.679169,"None","space",0.581573499,1806.679169,"None",1807.272965,"None","space",3.765811901,1807.272965,"None",1807.272965,"None",1,1,"2019_Jun_17_1042","visual_demo1",2002-03-01,99.6825894
"001_visual_demo1.csv","Now focus on the Sound",2,0,0,0,1,1,1,1,1,19,15,NA,NA,NA,NA,NA,NA,NA,NA,NA,NA,NA,NA,1818.69468,"None",NA,NA,NA,NA,NA,NA,1812.114111,"None",1812.114111,"None",1815.055181,"None","space",0.290606892,1815.055181,"None",1815.357703,"None","space",3.316118107,1815.357703,"None",1815.357703,"None",1,1,"2019_Jun_17_1042","visual_demo1",2002-03-01,99.6825894
"001_visual_demo1.csv","Now focus on the Sound",1.5,0,0,0,1,1,1,1,2,20,14,NA,NA,NA,NA,NA,NA,NA,NA,NA,NA,NA,NA,1826.849117,"None",NA,NA,NA,NA,NA,NA,1819.760793,"None",1819.760793,"None",1822.201353,"None","space",0.872413468,1822.201353,"None",1823.085398,"None","space",3.751367525,1823.085398,"None",1823.085398,"None",1,1,"2019_Jun_17_1042","visual_demo1",2002-03-01,99.6825894
"001_visual_demo1.csv","Now focus on the Sound",2,0,1,0,1,1,1,1,3,21,3,NA,NA,NA,NA,NA,NA,NA,NA,NA,NA,NA,NA,1835.055704,"None",NA,NA,NA,NA,NA,NA,1827.918151,"None",1827.918151,"None",1830.857749,"None","space",0.087040714,1830.857749,"None",1830.958152,"None","space",4.083623745,1830.958152,"None",1830.958152,"None",1,1,"2019_Jun_17_1042","visual_demo1",2002-03-01,99.6825894
"001_visual_demo1.csv","Now focus on the Sound",1,0,1,0,1,1,1,1,4,22,1,NA,NA,NA,NA,NA,NA,NA,NA,NA,NA,NA,NA,1838.399545,"None",NA,NA,NA,NA,NA,NA,1836.122315,"None",1836.122315,"None",1838.0614,"None","space",0.220411216,1838.0614,"None",1838.303927,"None","space",0.08188865,1838.303927,"None",1838.303927,"None",1,1,"2019_Jun_17_1042","visual_demo1",2002-03-01,99.6825894
"001_visual_demo1.csv","Now focus on the Sound",1,0,0,0,1,1,1,1,5,23,13,NA,NA,NA,NA,NA,NA,NA,NA,NA,NA,NA,NA,1843.030946,"None",NA,NA,NA,NA,NA,NA,1839.466531,"None",1839.466531,"None",1841.407731,"None","space",0.688066382,1841.407731,"None",1842.109228,"None","space",0.907571258,1842.109228,"None",1842.109228,"None",1,1,"2019_Jun_17_1042","visual_demo1",2002-03-01,99.6825894
"001_visual_demo1.csv","Now focus on the Sound",1,1,0,0,1,1,1,1,6,24,7,NA,NA,NA,NA,NA,NA,NA,NA,NA,NA,NA,NA,1847.627103,"None",NA,NA,NA,NA,NA,NA,1844.094839,"None",1844.094839,"None",1846.036502,"None","space",0.719279493,1846.036502,"None",1846.769815,"None","space",0.847983321,1846.769815,"None",1846.769815,"None",1,1,"2019_Jun_17_1042","visual_demo1",2002-03-01,99.6825894
"001_visual_demo1.csv","Now focus on the Sound",1.5,0,1,0,1,1,1,1,7,25,2,NA,NA,NA,NA,NA,NA,NA,NA,NA,NA,NA,NA,1853.868771,"None",NA,NA,NA,NA,NA,NA,1848.697111,"None",1848.697111,"None",1851.136214,"None","space",1.445594584,1851.136214,"None",1852.598127,"None","space",1.255679293,1852.598127,"None",1852.598127,"None",1,1,"2019_Jun_17_1042","visual_demo1",2002-03-01,99.6825894
"001_visual_demo1.csv","Now focus on the Sound",3.5,0,1,0,1,1,1,1,8,26,0,NA,NA,NA,NA,NA,NA,NA,NA,NA,NA,NA,NA,1862.938536,"None",NA,NA,NA,NA,NA,NA,1854.924648,"None",1854.924648,"None",1859.371757,"None","space",0.490054624,1859.371757,"None",1859.875379,"None","space",3.043441489,1859.875379,"None",1859.875379,"None",1,1,"2019_Jun_17_1042","visual_demo1",2002-03-01,99.6825894
"001_visual_demo1.csv","Now focus on the Sound",2.5,1,0,0,1,1,1,1,9,27,10,NA,NA,NA,NA,NA,NA,NA,NA,NA,NA,NA,NA,1870.790666,"None",NA,NA,NA,NA,NA,NA,1864.001888,"None",1864.001888,"None",1867.437065,"None","space",0.298760427,1867.437065,"None",1867.750091,"None","space",3.029716864,1867.750091,"None",1867.750091,"None",1,1,"2019_Jun_17_1042","visual_demo1",2002-03-01,99.6825894
"001_visual_demo1.csv","Now focus on the Sound",3,1,0,0,1,1,1,1,10,28,11,NA,NA,NA,NA,NA,NA,NA,NA,NA,NA,NA,NA,1879.917924,"None",NA,NA,NA,NA,NA,NA,1871.847926,"None",1871.847926,"None",1875.800269,"None","space",1.380562835,1875.800269,"None",1877.198003,"None","space",2.70780549,1877.198003,"None",1877.198003,"None",1,1,"2019_Jun_17_1042","visual_demo1",2002-03-01,99.6825894
"001_visual_demo1.csv","Now focus on the Sound",2.5,0,0,0,1,1,1,1,11,29,16,NA,NA,NA,NA,NA,NA,NA,NA,NA,NA,NA,NA,1887.913923,"None",NA,NA,NA,NA,NA,NA,1880.98283,"None",1880.98283,"None",1884.426472,"None","space",0.341334048,1884.426472,"None",1884.782045,"None","space",3.11692365,1884.782045,"None",1884.782045,"None",1,1,"2019_Jun_17_1042","visual_demo1",2002-03-01,99.6825894
"001_visual_demo1.csv","Now focus on the Sound",3,0,1,0,1,1,1,1,12,30,5,NA,NA,NA,NA,NA,NA,NA,NA,NA,NA,NA,NA,1897.51401,"None",NA,NA,NA,NA,NA,NA,1888.979935,"None",1888.979935,"None",1892.912536,"None","space",0.360302109,1892.912536,"None",1893.286193,"None","space",4.215664071,1893.286193,"None",1893.286193,"None",1,1,"2019_Jun_17_1042","visual_demo1",2002-03-01,99.6825894
"001_visual_demo1.csv","Now focus on the Sound",2,1,0,0,1,1,1,1,13,31,9,NA,NA,NA,NA,NA,NA,NA,NA,NA,NA,NA,NA,1904.995484,"None",NA,NA,NA,NA,NA,NA,1898.580996,"None",1898.580996,"None",1901.508889,"None","space",0.328960117,1901.508889,"None",1901.851714,"None","space",3.133253162,1901.851714,"None",1901.851714,"None",1,1,"2019_Jun_17_1042","visual_demo1",2002-03-01,99.6825894
"001_visual_demo1.csv","Now focus on the Sound",3.5,1,0,0,1,1,1,1,14,32,6,NA,NA,NA,NA,NA,NA,NA,NA,NA,NA,NA,NA,1914.445846,"None",NA,NA,NA,NA,NA,NA,1906.064162,"None",1906.064162,"None",1910.498698,"None","space",0.383158103,1910.498698,"None",1910.902312,"None","space",3.529455895,1910.902312,"None",1910.902312,"None",1,1,"2019_Jun_17_1042","visual_demo1",2002-03-01,99.6825894
"001_visual_demo1.csv","Now focus on the Sound",3,0,0,0,1,1,1,1,15,33,17,NA,NA,NA,NA,NA,NA,NA,NA,NA,NA,NA,NA,1924.061466,"None",NA,NA,NA,NA,NA,NA,1915.51171,"None",1915.51171,"None",1919.455578,"None","space",0.541270377,1919.455578,"None",1920.018448,"None","space",4.031448432,1920.018448,"None",1920.018448,"None",1,1,"2019_Jun_17_1042","visual_demo1",2002-03-01,99.6825894
"001_visual_demo1.csv","Now focus on the Sound",2.5,0,1,0,1,1,1,1,16,34,4,NA,NA,NA,NA,NA,NA,NA,NA,NA,NA,NA,NA,1930.985252,"None",NA,NA,NA,NA,NA,NA,1925.131082,"None",1925.131082,"None",1928.572575,"None","space",0.515351677,1928.572575,"None",1929.103801,"None","space",1.870086864,1929.103801,"None",1929.103801,"None",1,1,"2019_Jun_17_1042","visual_demo1",2002-03-01,99.6825894
"001_visual_demo1.csv","Now focus on the Sound",1.5,1,0,0,1,1,1,1,17,35,8,NA,NA,NA,NA,NA,NA,NA,NA,NA,NA,NA,NA,1938.078143,"None",NA,NA,NA,NA,NA,NA,1932.041223,"None",1932.041223,"None",1934.491305,"None","space",1.025608357,1934.491305,"None",1935.535259,"None","space",2.532651649,1935.535259,"None",1935.535259,"None",1,1,"2019_Jun_17_1042","visual_demo1",2002-03-01,99.6825894
"001_visual_demo1.csv","Now focus on the Sound",2,1,0,0,1,1,1,2,0,36,9,NA,NA,NA,NA,NA,NA,NA,NA,NA,NA,NA,NA,1945.161542,"None",NA,NA,NA,NA,NA,NA,1939.147591,"None",1939.147591,"None",1942.075643,"None","space",0.466231375,1942.075643,"None",1942.561824,"None","space",2.590031605,1942.561824,"None",1942.561824,"None",1,1,"2019_Jun_17_1042","visual_demo1",2002-03-01,99.6825894
"001_visual_demo1.csv","Now focus on the Sound",3.5,1,0,0,1,1,1,2,1,37,6,NA,NA,NA,NA,NA,NA,NA,NA,NA,NA,NA,NA,1954.66954,"None",NA,NA,NA,NA,NA,NA,1946.230205,"None",1946.230205,"None",1950.674703,"None","space",0.486180797,1950.674703,"None",1951.175642,"None","space",3.48130958,1951.175642,"None",1951.175642,"None",1,1,"2019_Jun_17_1042","visual_demo1",2002-03-01,99.6825894
"001_visual_demo1.csv","Now focus on the Sound",3.5,0,1,0,1,1,1,2,2,38,0,NA,NA,NA,NA,NA,NA,NA,NA,NA,NA,NA,NA,1964.369111,"None",NA,NA,NA,NA,NA,NA,1955.738644,"None",1955.738644,"None",1960.179965,"None","space",0.323008472,1960.179965,"None",1960.515845,"None","space",3.844164317,1960.515845,"None",1960.515845,"None",1,1,"2019_Jun_17_1042","visual_demo1",2002-03-01,99.6825894
"001_visual_demo1.csv","Now focus on the Sound",3,0,1,0,1,1,1,2,3,39,5,NA,NA,NA,NA,NA,NA,NA,NA,NA,NA,NA,NA,1977.335239,"None",NA,NA,NA,NA,NA,NA,1965.436697,"None",1965.436697,"None",1969.37743,"None","space",2.948464608,1969.37743,"None",1972.347648,"None","space",4.975233542,1972.347648,"None",1972.347648,"None",1,1,"2019_Jun_17_1042","visual_demo1",2002-03-01,99.6825894
"001_visual_demo1.csv","Now focus on the Sound",3,1,0,0,1,1,1,2,4,40,11,NA,NA,NA,NA,NA,NA,NA,NA,NA,NA,NA,NA,1986.071793,"None",NA,NA,NA,NA,NA,NA,1978.401204,"None",1978.401204,"None",1982.334761,"None","space",0.578142743,1982.334761,"None",1982.925426,"None","space",3.127544533,1982.925426,"None",1982.925426,"None",1,1,"2019_Jun_17_1042","visual_demo1",2002-03-01,99.6825894
"001_visual_demo1.csv","Now focus on the Sound",2,0,1,0,1,1,1,2,5,41,3,NA,NA,NA,NA,NA,NA,NA,NA,NA,NA,NA,NA,1993.473088,"None",NA,NA,NA,NA,NA,NA,1987.138854,"None",1987.138854,"None",1990.076668,"None","space",0.488252524,1990.076668,"None",1990.580309,"None","space",2.88363067,1990.580309,"None",1990.580309,"None",1,1,"2019_Jun_17_1042","visual_demo1",2002-03-01,99.6825894
"001_visual_demo1.csv","Now focus on the Sound",3,0,0,0,1,1,1,2,6,42,17,NA,NA,NA,NA,NA,NA,NA,NA,NA,NA,NA,NA,2001.979156,"None",NA,NA,NA,NA,NA,NA,1994.531178,"None",1994.531178,"None",1998.472442,"None","space",0.261532513,1998.472442,"None",1998.747662,"None","space",3.218326345,1998.747662,"None",1998.747662,"None",1,1,"2019_Jun_17_1042","visual_demo1",2002-03-01,99.6825894
"001_visual_demo1.csv","Now focus on the Sound",1.5,0,1,0,1,1,1,2,7,43,2,NA,NA,NA,NA,NA,NA,NA,NA,NA,NA,NA,NA,2007.392162,"None",NA,NA,NA,NA,NA,NA,2003.045887,"None",2003.045887,"None",2005.485809,"None","space",0.361099765,2005.485809,"None",2005.858421,"None","space",1.512516599,2005.858421,"None",2005.858421,"None",1,1,"2019_Jun_17_1042","visual_demo1",2002-03-01,99.6825894
"001_visual_demo1.csv","Now focus on the Sound",1,0,0,0,1,1,1,2,8,44,13,NA,NA,NA,NA,NA,NA,NA,NA,NA,NA,NA,NA,2011.950568,"None",NA,NA,NA,NA,NA,NA,2008.44571,"None",2008.44571,"None",2010.395154,"None","space",0.389786217,2010.395154,"None",2010.798733,"None","space",1.134206951,2010.798733,"None",2010.798733,"None",1,1,"2019_Jun_17_1042","visual_demo1",2002-03-01,99.6825894
"001_visual_demo1.csv","Now focus on the Sound",2.5,1,0,0,1,1,1,2,9,45,10,NA,NA,NA,NA,NA,NA,NA,NA,NA,NA,NA,NA,2019.742792,"None",NA,NA,NA,NA,NA,NA,2013.013653,"None",2013.013653,"None",2016.459353,"None","space",0.346616597,2016.459353,"None",2016.819576,"None","space",2.913379915,2016.819576,"None",2016.819576,"None",1,1,"2019_Jun_17_1042","visual_demo1",2002-03-01,99.6825894
"001_visual_demo1.csv","Now focus on the Sound",2.5,0,1,0,1,1,1,2,10,46,4,NA,NA,NA,NA,NA,NA,NA,NA,NA,NA,NA,NA,2026.187779,"None",NA,NA,NA,NA,NA,NA,2020.814409,"None",2020.814409,"None",2024.253746,"None","space",0.526212691,2024.253746,"None",2024.794989,"None","space",1.374969302,2024.794989,"None",2024.794989,"None",1,1,"2019_Jun_17_1042","visual_demo1",2002-03-01,99.6825894
"001_visual_demo1.csv","Now focus on the Sound",1.5,0,0,0,1,1,1,2,11,47,14,NA,NA,NA,NA,NA,NA,NA,NA,NA,NA,NA,NA,2032.790029,"None",NA,NA,NA,NA,NA,NA,2027.244411,"None",2027.244411,"None",2029.694414,"None","space",0.268505594,2029.694414,"None",2029.974608,"None","space",2.799341677,2029.974608,"None",2029.974608,"None",1,1,"2019_Jun_17_1042","visual_demo1",2002-03-01,99.6825894
"001_visual_demo1.csv","Now focus on the Sound",2,0,0,0,1,1,1,2,12,48,15,NA,NA,NA,NA,NA,NA,NA,NA,NA,NA,NA,NA,2040.525013,"None",NA,NA,NA,NA,NA,NA,2033.84286,"None",2033.84286,"None",2036.795098,"None","space",0.428883878,2036.795098,"None",2037.240981,"None","space",3.269989016,2037.240981,"None",2037.240981,"None",1,1,"2019_Jun_17_1042","visual_demo1",2002-03-01,99.6825894
"001_visual_demo1.csv","Now focus on the Sound",1,1,0,0,1,1,1,2,13,49,7,NA,NA,NA,NA,NA,NA,NA,NA,NA,NA,NA,NA,2046.363285,"None",NA,NA,NA,NA,NA,NA,2041.577661,"None",2041.577661,"None",2043.530642,"None","space",0.469329667,2043.530642,"None",2044.014093,"None","space",2.326896405,2044.014093,"None",2044.014093,"None",1,1,"2019_Jun_17_1042","visual_demo1",2002-03-01,99.6825894
"001_visual_demo1.csv","Now focus on the Sound",1,0,1,0,1,1,1,2,14,50,1,NA,NA,NA,NA,NA,NA,NA,NA,NA,NA,NA,NA,2054.107924,"None",NA,NA,NA,NA,NA,NA,2047.418665,"None",2047.418665,"None",2049.358928,"None","space",1.847024402,2049.358928,"None",2051.217932,"None","space",2.867105591,2051.217932,"None",2051.217932,"None",1,1,"2019_Jun_17_1042","visual_demo1",2002-03-01,99.6825894
"001_visual_demo1.csv","Now focus on the Sound",3.5,0,0,0,1,1,1,2,15,51,12,NA,NA,NA,NA,NA,NA,NA,NA,NA,NA,NA,NA,2062.844451,"None",NA,NA,NA,NA,NA,NA,2055.164068,"None",2055.164068,"None",2059.598331,"None","space",0.330661869,2059.598331,"None",2059.943646,"None","space",2.88131208,2059.943646,"None",2059.943646,"None",1,1,"2019_Jun_17_1042","visual_demo1",2002-03-01,99.6825894
"001_visual_demo1.csv","Now focus on the Sound",1.5,1,0,0,1,1,1,2,16,52,8,NA,NA,NA,NA,NA,NA,NA,NA,NA,NA,NA,NA,2069.479859,"None",NA,NA,NA,NA,NA,NA,2063.900794,"None",2063.900794,"None",2066.34351,"None","space",0.434609498,2066.34351,"None",2066.793915,"None","space",2.667086868,2066.793915,"None",2066.793915,"None",1,1,"2019_Jun_17_1042","visual_demo1",2002-03-01,99.6825894
"001_visual_demo1.csv","Now focus on the Sound",2.5,0,0,0,1,1,1,2,17,53,16,NA,NA,NA,NA,NA,NA,NA,NA,NA,NA,NA,NA,2078.283697,"None",NA,NA,NA,NA,NA,NA,2070.535079,"None",2070.535079,"None",2073.985543,"None","space",0.335437547,2073.985543,"None",2074.340931,"None","space",3.929145168,2074.340931,"None",2074.340931,"None",1,1,"2019_Jun_17_1042","visual_demo1",2002-03-01,99.6825894
"001_visual_demo1.csv","Now focus on the Sound",3,1,0,0,1,1,1,3,0,54,11,NA,NA,NA,NA,NA,NA,NA,NA,NA,NA,NA,NA,2088.623275,"None",NA,NA,NA,NA,NA,NA,2079.35029,"None",2079.35029,"None",2083.28318,"None","space",2.033847492,2083.28318,"None",2085.329439,"None","space",3.27856831,2085.329439,"None",2085.329439,"None",1,1,"2019_Jun_17_1042","visual_demo1",2002-03-01,99.6825894
"001_visual_demo1.csv","Now focus on the Sound",1.5,0,1,0,1,1,1,3,1,55,2,NA,NA,NA,NA,NA,NA,NA,NA,NA,NA,NA,NA,2098.514793,"None",NA,NA,NA,NA,NA,NA,2089.680329,"None",2089.680329,"None",2092.132339,"None","space",1.555680768,2092.132339,"None",2093.707441,"None","space",4.790596953,2093.707441,"None",2093.707441,"None",1,1,"2019_Jun_17_1042","visual_demo1",2002-03-01,99.6825894
"001_visual_demo1.csv","Now focus on the Sound",1,0,0,0,1,1,1,3,2,56,13,NA,NA,NA,NA,NA,NA,NA,NA,NA,NA,NA,NA,2105.354952,"None",NA,NA,NA,NA,NA,NA,2099.571392,"None",2099.571392,"None",2101.507704,"None","space",1.040315305,2101.507704,"None",2102.565119,"None","space",2.771897556,2102.565119,"None",2102.565119,"None",1,1,"2019_Jun_17_1042","visual_demo1",2002-03-01,99.6825894
"001_visual_demo1.csv","Now focus on the Sound",2.5,0,1,0,1,1,1,3,3,57,4,NA,NA,NA,NA,NA,NA,NA,NA,NA,NA,NA,NA,2113.710829,"None",NA,NA,NA,NA,NA,NA,2106.423021,"None",2106.423021,"None",2109.865956,"None","space",0.419043018,2109.865956,"None",2110.299599,"None","space",3.399440166,2110.299599,"None",2110.299599,"None",1,1,"2019_Jun_17_1042","visual_demo1",2002-03-01,99.6825894
"001_visual_demo1.csv","Now focus on the Sound",2.5,1,0,0,1,1,1,3,4,58,10,NA,NA,NA,NA,NA,NA,NA,NA,NA,NA,NA,NA,2120.924424,"None",NA,NA,NA,NA,NA,NA,2114.777787,"None",2114.777787,"None",2118.21935,"None","space",0.526653838,2118.21935,"None",2118.762425,"None","space",2.144599566,2118.762425,"None",2118.762425,"None",1,1,"2019_Jun_17_1042","visual_demo1",2002-03-01,99.6825894
"001_visual_demo1.csv","Now focus on the Sound",3.5,0,1,0,1,1,1,3,5,59,0,NA,NA,NA,NA,NA,NA,NA,NA,NA,NA,NA,NA,2130.963534,"None",NA,NA,NA,NA,NA,NA,2121.981744,"None",2121.981744,"None",2126.424887,"None","space",0.498138268,2126.424887,"None",2126.938899,"None","space",4.014210016,2126.938899,"None",2126.938899,"None",1,1,"2019_Jun_17_1042","visual_demo1",2002-03-01,99.6825894
"001_visual_demo1.csv","Now focus on the Sound",3,0,1,0,1,1,1,3,6,60,5,NA,NA,NA,NA,NA,NA,NA,NA,NA,NA,NA,NA,2140.381333,"None",NA,NA,NA,NA,NA,NA,2132.029589,"None",2132.029589,"None",2135.962957,"None","space",0.553086141,2135.962957,"None",2136.539058,"None","space",3.826992906,2136.539058,"None",2136.539058,"None",1,1,"2019_Jun_17_1042","visual_demo1",2002-03-01,99.6825894
"001_visual_demo1.csv","Now focus on the Sound",2,1,0,0,1,1,1,3,7,61,9,NA,NA,NA,NA,NA,NA,NA,NA,NA,NA,NA,NA,2147.905532,"None",NA,NA,NA,NA,NA,NA,2141.43995,"None",2141.43995,"None",2144.391695,"None","space",0.587406521,2144.391695,"None",2144.995083,"None","space",2.896962558,2144.995083,"None",2144.995083,"None",1,1,"2019_Jun_17_1042","visual_demo1",2002-03-01,99.6825894
"001_visual_demo1.csv","Now focus on the Sound",1.5,0,0,0,1,1,1,3,8,62,14,NA,NA,NA,NA,NA,NA,NA,NA,NA,NA,NA,NA,2154.608294,"None",NA,NA,NA,NA,NA,NA,2148.970884,"None",2148.970884,"None",2151.415016,"None","space",0.453047925,2151.415016,"None",2151.885562,"None","space",2.712562573,2151.885562,"None",2151.885562,"None",1,1,"2019_Jun_17_1042","visual_demo1",2002-03-01,99.6825894
"001_visual_demo1.csv","Now focus on the Sound",3.5,1,0,0,1,1,1,3,9,63,6,NA,NA,NA,NA,NA,NA,NA,NA,NA,NA,NA,NA,2164.048885,"None",NA,NA,NA,NA,NA,NA,2155.674326,"None",2155.674326,"None",2160.099401,"None","space",0.268665574,2160.099401,"None",2160.381268,"None","space",3.649773431,2160.381268,"None",2160.381268,"None",1,1,"2019_Jun_17_1042","visual_demo1",2002-03-01,99.6825894
"001_visual_demo1.csv","Now focus on the Sound",2,0,1,0,1,1,1,3,10,64,3,NA,NA,NA,NA,NA,NA,NA,NA,NA,NA,NA,NA,2172.081916,"None",NA,NA,NA,NA,NA,NA,2165.104423,"None",2165.104423,"None",2168.053769,"None","space",0.504314654,2168.053769,"None",2168.577234,"None","space",3.494867813,2168.577234,"None",2168.577234,"None",1,1,"2019_Jun_17_1042","visual_demo1",2002-03-01,99.6825894
"001_visual_demo1.csv","Now focus on the Sound",2,0,0,0,1,1,1,3,11,65,15,NA,NA,NA,NA,NA,NA,NA,NA,NA,NA,NA,NA,2179.134904,"None",NA,NA,NA,NA,NA,NA,2173.146367,"None",2173.146367,"None",2176.09177,"None","space",0.320292017,2176.09177,"None",2176.434802,"None","space",2.688442768,2176.434802,"None",2176.434802,"None",1,1,"2019_Jun_17_1042","visual_demo1",2002-03-01,99.6825894
"001_visual_demo1.csv","Now focus on the Sound",1,1,0,0,1,1,1,3,12,66,7,NA,NA,NA,NA,NA,NA,NA,NA,NA,NA,NA,NA,2184.696003,"None",NA,NA,NA,NA,NA,NA,2180.20221,"None",2180.20221,"None",2182.143333,"None","space",0.46174488,2182.143333,"None",2182.626028,"None","space",2.058033662,2182.626028,"None",2182.626028,"None",1,1,"2019_Jun_17_1042","visual_demo1",2002-03-01,99.6825894
"001_visual_demo1.csv","Now focus on the Sound",3.5,0,0,0,1,1,1,3,13,67,12,NA,NA,NA,NA,NA,NA,NA,NA,NA,NA,NA,NA,2193.472677,"None",NA,NA,NA,NA,NA,NA,2185.761462,"None",2185.761462,"None",2190.18564,"None","space",0.666523572,2190.18564,"None",2190.868912,"None","space",2.597183581,2190.868912,"None",2190.868912,"None",1,1,"2019_Jun_17_1042","visual_demo1",2002-03-01,99.6825894
"001_visual_demo1.csv","Now focus on the Sound",3,0,0,0,1,1,1,3,14,68,17,NA,NA,NA,NA,NA,NA,NA,NA,NA,NA,NA,NA,2202.949882,"None",NA,NA,NA,NA,NA,NA,2194.541543,"None",2194.541543,"None",2198.481364,"None","space",0.666728756,2198.481364,"None",2199.164747,"None","space",3.77538057,2199.164747,"None",2199.164747,"None",1,1,"2019_Jun_17_1042","visual_demo1",2002-03-01,99.6825894
"001_visual_demo1.csv","Now focus on the Sound",1,0,1,0,1,1,1,3,15,69,1,NA,NA,NA,NA,NA,NA,NA,NA,NA,NA,NA,NA,2209.875742,"None",NA,NA,NA,NA,NA,NA,2204.015908,"None",2204.015908,"None",2205.95556,"None","space",0.755567083,2205.95556,"None",2206.729748,"None","space",3.133399676,2206.729748,"None",2206.729748,"None",1,1,"2019_Jun_17_1042","visual_demo1",2002-03-01,99.6825894
"001_visual_demo1.csv","Now focus on the Sound",1.5,1,0,0,1,1,1,3,16,70,8,NA,NA,NA,NA,NA,NA,NA,NA,NA,NA,NA,NA,2216.956449,"None",NA,NA,NA,NA,NA,NA,2210.939741,"None",2210.939741,"None",2213.379753,"None","space",0.538345851,2213.379753,"None",2213.933746,"None","space",3.014361981,2213.933746,"None",2213.933746,"None",1,1,"2019_Jun_17_1042","visual_demo1",2002-03-01,99.6825894
"001_visual_demo1.csv","Now focus on the Sound",2.5,0,0,0,1,1,1,3,17,71,16,NA,NA,NA,NA,NA,NA,NA,NA,NA,NA,NA,NA,2224.964354,"None",NA,NA,NA,NA,NA,NA,2218.015121,"None",2218.015121,"None",2221.464996,"None","space",0.392130454,2221.464996,"None",2221.8705,"None","space",3.076750692,2221.8705,"None",2221.8705,"None",1,1,"2019_Jun_17_1042","visual_demo1",2002-03-01,99.6825894
"001_visual_demo1.csv","Now focus on the Sound",1.5,0,0,0,1,1,1,4,0,72,14,NA,NA,NA,NA,NA,NA,NA,NA,NA,NA,NA,NA,2231.974746,"None",NA,NA,NA,NA,NA,NA,2226.029225,"None",2226.029225,"None",2228.470984,"None","space",0.476119364,2228.470984,"None",2228.964526,"None","space",2.999677796,2228.964526,"None",2228.964526,"None",1,1,"2019_Jun_17_1042","visual_demo1",2002-03-01,99.6825894
"001_visual_demo1.csv","Now focus on the Sound",1,1,0,0,1,1,1,4,1,73,7,NA,NA,NA,NA,NA,NA,NA,NA,NA,NA,NA,NA,2236.603636,"None",NA,NA,NA,NA,NA,NA,2233.041791,"None",2233.041791,"None",2234.980534,"None","space",0.497612161,2234.980534,"None",2235.495876,"None","space",1.097427879,2235.495876,"None",2235.495876,"None",1,1,"2019_Jun_17_1042","visual_demo1",2002-03-01,99.6825894
"001_visual_demo1.csv","Now focus on the Sound",3,0,1,0,1,1,1,4,2,74,5,NA,NA,NA,NA,NA,NA,NA,NA,NA,NA,NA,NA,2245.60069,"None",NA,NA,NA,NA,NA,NA,2237.662242,"None",2237.662242,"None",2241.615848,"None","space",0.491297275,2241.615848,"None",2242.118884,"None","space",3.467230369,2242.118884,"None",2242.118884,"None",1,1,"2019_Jun_17_1042","visual_demo1",2002-03-01,99.6825894
"001_visual_demo1.csv","Now focus on the Sound",3.5,0,1,0,1,1,1,4,3,75,0,NA,NA,NA,NA,NA,NA,NA,NA,NA,NA,NA,NA,2254.820902,"None",NA,NA,NA,NA,NA,NA,2246.666179,"None",2246.666179,"None",2251.103579,"None","space",0.441557251,2251.103579,"None",2251.557384,"None","space",3.248733144,2251.557384,"None",2251.557384,"None",1,1,"2019_Jun_17_1042","visual_demo1",2002-03-01,99.6825894
"001_visual_demo1.csv","Now focus on the Sound",1,0,1,0,1,1,1,4,4,76,1,NA,NA,NA,NA,NA,NA,NA,NA,NA,NA,NA,NA,2259.707509,"None",NA,NA,NA,NA,NA,NA,2255.884821,"None",2255.884821,"None",2257.82657,"None","space",0.407558434,2257.82657,"None",2258.246802,"None","space",1.44833252,2258.246802,"None",2258.246802,"None",1,1,"2019_Jun_17_1042","visual_demo1",2002-03-01,99.6825894
"001_visual_demo1.csv","Now focus on the Sound",1.5,1,0,0,1,1,1,4,5,77,8,NA,NA,NA,NA,NA,NA,NA,NA,NA,NA,NA,NA,2265.167731,"None",NA,NA,NA,NA,NA,NA,2260.766779,"None",2260.766779,"None",2263.216314,"None","space",0.28983296,2263.216314,"None",2263.517351,"None","space",1.637859562,2263.517351,"None",2263.517351,"None",1,1,"2019_Jun_17_1042","visual_demo1",2002-03-01,99.6825894
"001_visual_demo1.csv","Now focus on the Sound",2.5,0,1,0,1,1,1,4,6,78,4,NA,NA,NA,NA,NA,NA,NA,NA,NA,NA,NA,NA,2272.591916,"None",NA,NA,NA,NA,NA,NA,2266.224176,"None",2266.224176,"None",2269.666197,"None","space",0.320964318,2269.666197,"None",2270.000147,"None","space",2.577024806,2270.000147,"None",2270.000147,"None",1,1,"2019_Jun_17_1042","visual_demo1",2002-03-01,99.6825894
"001_visual_demo1.csv","Now focus on the Sound",2.5,1,0,0,1,1,1,4,7,79,10,NA,NA,NA,NA,NA,NA,NA,NA,NA,NA,NA,NA,2279.678105,"None",NA,NA,NA,NA,NA,NA,2273.660515,"None",2273.660515,"None",2277.100365,"None","space",0.347802181,2277.100365,"None",2277.463516,"None","space",2.199637528,2277.463516,"None",2277.463516,"None",1,1,"2019_Jun_17_1042","visual_demo1",2002-03-01,99.6825894
"001_visual_demo1.csv","Now focus on the Sound",3,1,0,0,1,1,1,4,8,80,11,NA,NA,NA,NA,NA,NA,NA,NA,NA,NA,NA,NA,2288.544429,"None",NA,NA,NA,NA,NA,NA,2280.743202,"None",2280.743202,"None",2284.684704,"None","space",0.426439933,2284.684704,"None",2285.128443,"None","space",3.40172926,2285.128443,"None",2285.128443,"None",1,1,"2019_Jun_17_1042","visual_demo1",2002-03-01,99.6825894
"001_visual_demo1.csv","Now focus on the Sound",3.5,1,0,0,1,1,1,4,9,81,6,NA,NA,NA,NA,NA,NA,NA,NA,NA,NA,NA,NA,2298.453524,"None",NA,NA,NA,NA,NA,NA,2289.611075,"None",2289.611075,"None",2294.054855,"None","space",0.268315798,2294.054855,"None",2294.33574,"None","space",4.09649012,2294.33574,"None",2294.33574,"None",1,1,"2019_Jun_17_1042","visual_demo1",2002-03-01,99.6825894
"001_visual_demo1.csv","Now focus on the Sound",3,0,0,0,1,1,1,4,10,82,17,NA,NA,NA,NA,NA,NA,NA,NA,NA,NA,NA,NA,2307.568065,"None",NA,NA,NA,NA,NA,NA,2299.519065,"None",2299.519065,"None",2303.460189,"None","space",0.303085981,2303.460189,"None",2303.785906,"None","space",3.764423055,2303.785906,"None",2303.785906,"None",1,1,"2019_Jun_17_1042","visual_demo1",2002-03-01,99.6825894
"001_visual_demo1.csv","Now focus on the Sound",2.5,0,0,0,1,1,1,4,11,83,16,NA,NA,NA,NA,NA,NA,NA,NA,NA,NA,NA,NA,2315.766326,"None",NA,NA,NA,NA,NA,NA,2308.635524,"None",2308.635524,"None",2312.068978,"None","space",0.457214782,2312.068978,"None",2312.53972,"None","space",3.212467355,2312.53972,"None",2312.53972,"None",1,1,"2019_Jun_17_1042","visual_demo1",2002-03-01,99.6825894
